"","SubID","trial_num","pUP","stock_outcome","Advisor","Advice","AdvisorCorrect","choice","outcome","rt","tally"
"1",1,1,0.405760218715295,-1,3,1,0,0,1,4380,11
"2",1,2,0.299795786060214,-1,1,-1,1,0,1,1971,12
"3",1,3,0.204922919019879,-1,2,1,0,0,1,2207,13
"4",1,4,0.162867731683473,-1,1,-1,1,0,1,5284,14
"5",1,5,0.101378402574763,-1,3,1,0,0,1,2335,15
"6",1,6,0.159884517920194,1,2,1,1,0,-1,1559,14
"7",1,7,0.127256230072028,-1,3,1,0,0,1,2645,15
"8",1,8,0.146817946019409,-1,2,-1,1,0,1,1627,16
"9",1,9,0.122229743974341,1,1,-1,0,0,-1,5823,15
"10",1,10,0.104369631365903,-1,2,-1,1,1,-1,2181,14
"11",1,11,0.248700530139997,-1,3,-1,1,0,1,1736,15
"12",1,12,0.212754740469557,-1,1,1,0,1,-1,5123,14
"13",1,13,0.269415939083768,-1,3,1,0,0,1,1828,15
"14",1,14,0.349691686722828,-1,1,-1,1,0,1,2615,16
"15",1,15,0.240468696195988,-1,2,-1,1,0,1,2253,17
"16",1,16,0.265720303783281,-1,1,-1,1,0,1,2210,18
"17",1,17,0.283403011015238,1,3,-1,0,0,-1,2807,17
"18",1,18,0.306627626968481,-1,2,-1,1,1,-1,2731,16
"19",1,19,0.319631412595874,1,3,-1,0,1,1,2086,17
"20",1,20,0.332195114702197,-1,2,-1,1,1,-1,1634,16
"21",1,21,0.370661634479456,-1,2,1,0,1,-1,2296,15
"22",1,22,0.398741379754529,1,3,-1,0,1,1,1920,16
"23",1,23,0.504274797813181,1,1,1,1,1,1,1771,17
"24",1,24,0.457031302179874,1,3,-1,0,1,1,1905,18
"25",1,25,0.485268882257933,1,2,-1,0,1,1,1935,19
"26",1,26,0.437305719806022,1,1,1,1,1,1,2231,20
"27",1,27,0.364001571306099,-1,2,-1,1,1,-1,2479,19
"28",1,28,0.440443782210965,-1,1,-1,1,0,1,1981,20
"29",1,29,0.459261281471308,-1,3,-1,1,0,1,2638,21
"30",1,30,0.374210269796694,-1,1,-1,1,0,1,1863,22
"31",1,31,0.427764080804516,1,2,1,1,0,-1,2184,21
"32",1,32,0.474038817999748,-1,3,-1,1,1,-1,2124,20
"33",1,33,0.533317357277045,1,2,-1,0,0,-1,2163,19
"34",1,34,0.536526407589837,1,3,-1,0,1,1,2221,20
"35",1,35,0.534058347841332,-1,1,-1,1,0,1,1875,21
"36",1,36,0.652206379562235,1,3,-1,0,1,1,2059,22
"37",1,37,0.720287094618507,1,2,-1,0,1,1,2564,23
"38",1,38,0.798933897920133,1,1,1,1,1,1,1789,24
"39",1,39,0.793049613066082,-1,2,-1,1,1,-1,2310,23
"40",1,40,0.897550555654432,1,1,1,1,1,1,1767,24
"41",1,41,0.879850010728478,1,1,1,1,1,1,1779,25
"42",1,42,0.880870486124859,1,2,-1,0,1,1,2141,26
"43",1,43,0.895839309198019,1,3,-1,0,1,1,2029,27
"44",1,44,0.848558442167985,1,2,-1,0,0,-1,2477,26
"45",1,45,0.866216274161462,1,1,1,1,1,1,1825,27
"46",1,46,0.761400001222962,1,3,1,1,0,-1,2256,26
"47",1,47,0.681716501460829,-1,1,-1,1,0,1,1863,27
"48",1,48,0.798562390350064,1,3,-1,0,1,1,2210,28
"49",1,49,0.852891923183826,-1,2,-1,1,0,1,2782,29
"50",1,50,0.825161648574242,1,3,-1,0,1,1,2548,30
"51",1,51,0.786410030306798,1,1,-1,0,0,-1,2399,29
"52",1,52,0.78899146610837,1,2,-1,0,1,1,2487,30
"53",1,53,0.673563632836739,-1,1,-1,1,0,1,1820,31
"54",1,54,0.627488866190824,-1,2,1,0,0,1,2231,32
"55",1,55,0.72022554092855,1,3,-1,0,0,-1,2162,31
"56",1,56,0.739541347715589,1,2,-1,0,0,-1,2358,30
"57",1,57,0.739643361476034,1,1,-1,0,0,-1,1932,29
"58",1,58,0.775535795629814,1,3,-1,0,1,1,1923,30
"59",1,59,0.799501388683349,1,1,-1,0,0,-1,1978,29
"60",1,60,0.813968770069252,1,3,1,1,1,1,2225,30
"61",2,1,0.53845125772059,1,1,1,1,1,1,2760,20
"62",2,2,0.444182902284731,1,2,1,1,1,1,2055,21
"63",2,3,0.430038079772639,-1,3,1,0,1,-1,4504,20
"64",2,4,0.396577309669597,-1,2,1,0,0,1,1527,21
"65",2,5,0.409605114293116,1,1,1,1,0,-1,1816,20
"66",2,6,0.317104273875761,-1,3,1,0,1,-1,1720,19
"67",2,7,0.231938292835839,-1,1,-1,1,1,-1,1823,18
"68",2,8,0.129859870324041,-1,3,1,0,1,-1,2152,17
"69",2,9,0.27913210026621,1,2,-1,0,0,-1,1519,16
"70",2,10,0.26429776822417,-1,3,1,0,0,1,1560,17
"71",2,11,0.318937261196354,-1,1,-1,1,0,1,1896,18
"72",2,12,0.292242503114888,-1,2,1,0,0,1,1840,19
"73",2,13,0.228970142481318,1,1,1,1,0,-1,1832,18
"74",2,14,0.306390264866638,-1,2,1,0,1,-1,1705,17
"75",2,15,0.206774708836184,-1,3,-1,1,0,1,1703,18
"76",2,16,0.307930020583624,-1,2,-1,1,0,1,1696,19
"77",2,17,0.346057667879969,-1,1,-1,1,0,1,1912,20
"78",2,18,0.338967729565851,-1,3,1,0,1,-1,1887,19
"79",2,19,0.385889498674088,1,1,1,1,1,1,1688,20
"80",2,20,0.32854610132706,-1,3,1,0,1,-1,1775,19
"81",2,21,0.396508850642681,-1,3,1,0,0,1,1872,20
"82",2,22,0.515782130281971,1,1,1,1,0,-1,1800,19
"83",2,23,0.451564861697303,1,2,-1,0,0,-1,1672,18
"84",2,24,0.351026812315404,-1,1,1,0,1,-1,1823,17
"85",2,25,0.508851012177604,-1,3,1,0,0,1,1744,18
"86",2,26,0.473347641768302,1,2,1,1,0,-1,1591,17
"87",2,27,0.445879824453901,1,3,-1,0,0,-1,1569,16
"88",2,28,0.44390263960958,1,2,-1,0,0,-1,1536,15
"89",2,29,0.467164355148382,-1,1,-1,1,0,1,1608,16
"90",2,30,0.442688863923492,1,2,1,1,1,1,1616,17
"91",2,31,0.457244888938569,-1,3,1,0,1,-1,1711,16
"92",2,32,0.576194262787076,1,1,1,1,1,1,1760,17
"93",2,33,0.520624797472942,-1,3,-1,1,0,1,1655,18
"94",2,34,0.624640213861631,1,1,1,1,1,1,1840,19
"95",2,35,0.685277790852569,-1,2,1,0,1,-1,1840,18
"96",2,36,0.763995022984148,1,1,1,1,1,1,1776,19
"97",2,37,0.829267206596317,1,3,1,1,1,1,1817,20
"98",2,38,0.769729772228717,-1,2,-1,1,0,1,1512,21
"99",2,39,0.684630874096867,1,3,1,1,1,1,1704,22
"100",2,40,0.680958550047689,-1,2,-1,1,0,1,2409,23
"101",2,41,0.757826393871176,1,2,-1,0,0,-1,1655,22
"102",2,42,0.812670839288237,-1,3,1,0,1,-1,1816,21
"103",2,43,0.709809515688105,1,1,-1,0,0,-1,1744,20
"104",2,44,0.788106160398354,-1,3,-1,1,0,1,1655,21
"105",2,45,0.811032211424669,1,2,1,1,1,1,1728,22
"106",2,46,0.818798107365876,-1,1,1,0,1,-1,1808,21
"107",2,47,0.78163786397853,1,2,1,1,1,1,1671,22
"108",2,48,0.838319741124589,1,1,-1,0,0,-1,1584,21
"109",2,49,0.881256106490823,1,3,-1,0,0,-1,1656,20
"110",2,50,0.841398579326416,1,1,1,1,0,-1,1568,19
"111",2,51,0.73655719126252,-1,2,-1,1,0,1,1616,20
"112",2,52,0.748220603011686,-1,3,1,0,1,-1,1568,19
"113",2,53,0.666782869854014,1,2,-1,0,0,-1,1567,18
"114",2,54,0.624000380623755,-1,3,1,0,0,1,1584,19
"115",2,55,0.550822714118888,1,1,1,1,1,1,1824,20
"116",2,56,0.543958277645588,-1,3,1,0,1,-1,1735,19
"117",2,57,0.583951601386812,-1,2,1,0,1,-1,1760,18
"118",2,58,0.735809192578695,-1,1,1,0,0,1,1520,19
"119",2,59,0.702819235895572,1,2,1,1,0,-1,1793,18
"120",2,60,0.726187051781044,1,1,1,1,1,1,2112,19
"121",3,1,0.490841873921454,-1,2,-1,1,1,-1,3241,21
"122",3,2,0.577571371890292,1,3,1,1,0,-1,2102,20
"123",3,3,0.702233143809273,1,1,1,1,1,1,1807,21
"124",3,4,0.820812483097083,1,3,-1,0,1,1,1815,22
"125",3,5,0.637072488937781,1,2,1,1,1,1,1672,23
"126",3,6,0.740038791069025,1,1,1,1,1,1,1819,24
"127",3,7,0.697479734691195,1,2,1,1,1,1,3163,25
"128",3,8,0.76765272027927,1,1,-1,0,0,-1,1864,24
"129",3,9,0.819116300620042,1,3,-1,0,1,1,2259,25
"130",3,10,0.851394741536919,1,1,1,1,1,1,1934,26
"131",3,11,0.86692563741393,1,2,-1,0,1,1,3174,27
"132",3,12,0.892013529784977,1,3,-1,0,1,1,1807,28
"133",3,13,0.868047739084533,1,2,1,1,1,1,2435,29
"134",3,14,0.864077162546592,1,3,-1,0,1,1,1778,30
"135",3,15,0.804394951957884,1,1,1,1,1,1,1799,31
"136",3,16,0.708320720263041,-1,3,1,0,1,-1,1935,30
"137",3,17,0.664930707080113,-1,2,-1,1,0,1,1784,31
"138",3,18,0.678778330801207,1,1,1,1,1,1,1820,32
"139",3,19,0.543023674583969,1,2,-1,0,1,1,2705,33
"140",3,20,0.567400329601103,1,1,-1,0,0,-1,1952,32
"141",3,21,0.476616163257712,-1,3,-1,1,1,-1,2048,31
"142",3,22,0.569779234500804,-1,1,-1,1,0,1,1952,32
"143",3,23,0.625629611920333,1,2,1,1,0,-1,1999,31
"144",3,24,0.606569144001419,1,1,1,1,1,1,1790,32
"145",3,25,0.478890820899366,-1,3,1,0,1,-1,1823,31
"146",3,26,0.398613639696275,1,2,1,1,1,1,1775,32
"147",3,27,0.354164421682092,-1,3,1,0,0,1,1790,33
"148",3,28,0.244129658062688,-1,2,1,0,1,-1,2063,32
"149",3,29,0.246947369436426,-1,1,-1,1,0,1,2304,33
"150",3,30,0.21642495413464,-1,2,1,0,1,-1,2131,32
"151",3,31,0.225305988972613,-1,3,1,0,0,1,1864,33
"152",3,32,0.231478341645276,-1,1,-1,1,0,1,1934,34
"153",3,33,0.144872578383701,-1,3,-1,1,1,-1,4057,33
"154",3,34,0.17705683308585,-1,1,-1,1,1,-1,2609,32
"155",3,35,0.21408732480382,1,2,-1,0,0,-1,2311,31
"156",3,36,0.354107001374112,-1,1,-1,1,0,1,1951,32
"157",3,37,0.460564488599636,-1,3,-1,1,1,-1,1831,31
"158",3,38,0.422707159425188,-1,2,1,0,1,-1,1829,30
"159",3,39,0.338088960810691,1,3,1,1,0,-1,2070,29
"160",3,40,0.408097550561708,1,2,-1,0,1,1,1974,30
"161",3,41,0.554926066922972,-1,1,1,0,1,-1,1902,29
"162",3,42,0.528051653959375,-1,2,1,0,1,-1,1847,28
"163",3,43,0.515713253323496,-1,3,1,0,0,1,2007,29
"164",3,44,0.418358683703156,-1,2,-1,1,0,1,1775,30
"165",3,45,0.400762409400614,-1,1,1,0,1,-1,1871,29
"166",3,46,0.374233383808089,-1,3,1,0,0,1,1839,30
"167",3,47,0.428814618461098,-1,1,-1,1,0,1,1895,31
"168",3,48,0.444524483508971,1,3,-1,0,1,1,1808,32
"169",3,49,0.535163769513952,1,2,1,1,1,1,1743,33
"170",3,50,0.551150158958293,1,3,-1,0,1,1,1791,34
"171",3,51,0.557021924233743,-1,1,-1,1,0,1,2089,35
"172",3,52,0.482998643837279,1,2,-1,0,0,-1,1903,34
"173",3,53,0.370270386044384,1,1,1,1,1,1,1878,35
"174",3,54,0.481140136728784,1,2,-1,0,1,1,2271,36
"175",3,55,0.55764300382796,1,3,-1,0,1,1,1787,37
"176",3,56,0.456010788986024,-1,2,-1,1,1,-1,1862,36
"177",3,57,0.468517885007601,-1,1,-1,1,0,1,1935,37
"178",3,58,0.333672675206237,-1,3,1,0,0,1,3350,38
"179",3,59,0.306485098258985,-1,1,1,0,1,-1,1939,37
"180",3,60,0.223002066389897,-1,3,1,0,0,1,1836,38
"181",4,1,0.549232740327716,-1,1,-1,1,0,1,3826,25
"182",4,2,0.538338790575113,-1,2,-1,1,0,1,2639,26
"183",4,3,0.443987882231987,-1,3,1,0,0,1,2351,27
"184",4,4,0.364477104631203,-1,2,-1,1,0,1,2607,28
"185",4,5,0.276992546762718,1,1,1,1,0,-1,2768,27
"186",4,6,0.429538457174531,1,3,1,1,1,1,1968,28
"187",4,7,0.477080183757012,-1,1,-1,1,1,-1,1968,27
"188",4,8,0.490176938659154,-1,3,1,0,0,1,1886,28
"189",4,9,0.465588710729843,-1,2,1,0,0,1,2032,29
"190",4,10,0.484708790292184,1,3,1,1,0,-1,4592,28
"191",4,11,0.465141730227683,-1,1,-1,1,1,-1,2239,27
"192",4,12,0.526328911057454,-1,2,1,0,1,-1,1839,26
"193",4,13,0.429899525282878,-1,1,-1,1,0,1,2367,27
"194",4,14,0.364756337894631,1,2,1,1,0,-1,2832,26
"195",4,15,0.272838119497269,-1,3,1,0,1,-1,1791,25
"196",4,16,0.226508550427082,-1,2,-1,1,0,1,1857,26
"197",4,17,0.187431389652159,-1,1,-1,1,0,1,2033,27
"198",4,18,0.259419084010196,1,3,-1,0,1,1,2241,28
"199",4,19,0.309134784649712,-1,1,-1,1,0,1,1968,29
"200",4,20,0.243735335793826,-1,3,1,0,0,1,1856,30
"201",4,21,0.29757537230347,-1,2,1,0,1,-1,2767,29
"202",4,22,0.269024244129425,-1,3,1,0,0,1,1872,30
"203",4,23,0.264086462317403,-1,1,-1,1,0,1,1856,31
"204",4,24,0.278789756080261,-1,3,-1,1,0,1,2463,32
"205",4,25,0.289037908801218,1,2,1,1,1,1,2576,33
"206",4,26,0.379343648502077,1,1,1,1,1,1,1889,34
"207",4,27,0.38966366853046,1,2,-1,0,1,1,2560,35
"208",4,28,0.411462232610704,1,1,-1,0,0,-1,1872,34
"209",4,29,0.378650049941574,1,3,1,1,0,-1,1809,33
"210",4,30,0.411659439817063,-1,1,-1,1,0,1,1889,34
"211",4,31,0.387994195607059,1,2,1,1,1,1,2750,35
"212",4,32,0.273841030160122,-1,3,1,0,1,-1,3025,34
"213",4,33,0.312596629008365,-1,2,1,0,1,-1,2960,33
"214",4,34,0.343199307056567,-1,3,1,0,0,1,2207,34
"215",4,35,0.408405439778855,-1,1,1,0,1,-1,1840,33
"216",4,36,0.461204571970291,-1,3,1,0,0,1,1808,34
"217",4,37,0.609975517626284,1,2,-1,0,0,-1,2064,33
"218",4,38,0.658508844839887,-1,1,-1,1,0,1,3344,34
"219",4,39,0.646244804145217,-1,2,1,0,1,-1,1792,33
"220",4,40,0.723418276934881,1,1,1,1,1,1,1791,34
"221",4,41,0.722484578020372,-1,3,1,0,1,-1,1983,33
"222",4,42,0.742084584963228,1,1,1,1,1,1,1983,34
"223",4,43,0.684091811879391,-1,2,1,0,1,-1,2143,33
"224",4,44,0.721807625557033,1,1,-1,0,0,-1,1840,32
"225",4,45,0.766406741861054,1,3,1,1,0,-1,1841,31
"226",4,46,0.790818181216064,1,2,-1,0,1,1,1905,32
"227",4,47,0.750875769712353,1,3,-1,0,1,1,1792,33
"228",4,48,0.812754481573805,1,2,1,1,1,1,3057,34
"229",4,49,0.797877639188023,1,1,-1,0,0,-1,1998,33
"230",4,50,0.843436090522728,1,2,1,1,1,1,1743,34
"231",4,51,0.854454029652036,1,3,-1,0,1,1,1888,35
"232",4,52,0.826610939289755,1,1,1,1,1,1,1680,36
"233",4,53,0.695064955015126,1,3,-1,0,1,1,1808,37
"234",4,54,0.539113030767145,-1,1,-1,1,0,1,2656,38
"235",4,55,0.596420588242928,-1,2,-1,1,0,1,1790,39
"236",4,56,0.62803718387689,-1,1,1,0,1,-1,3215,38
"237",4,57,0.604510978077217,-1,3,1,0,0,1,2288,39
"238",4,58,0.661434439977329,1,2,-1,0,0,-1,2128,38
"239",4,59,0.690238940571432,-1,3,1,0,1,-1,1841,37
"240",4,60,0.669393453788139,1,2,1,1,0,-1,1999,36
"241",5,1,0.531494345050305,1,2,-1,0,1,1,2766,0
"242",5,2,0.48975347810819,1,3,-1,0,1,1,2291,1
"243",5,3,0.536074368837891,1,1,-1,0,0,-1,2010,0
"244",5,4,0.543873036123286,1,3,-1,0,0,-1,1977,-1
"245",5,5,0.555563932232879,1,2,1,1,1,1,1999,0
"246",5,6,0.63481741946933,1,1,1,1,1,1,1837,1
"247",5,7,0.641074085557159,-1,2,1,0,0,1,1878,2
"248",5,8,0.687309756734981,1,1,1,1,0,-1,2555,1
"249",5,9,0.637214102370604,1,3,1,1,0,-1,2010,0
"250",5,10,0.635793982791852,1,1,1,1,1,1,1795,1
"251",5,11,0.711351648486681,1,2,1,1,0,-1,1901,0
"252",5,12,0.706066351802316,1,3,-1,0,0,-1,1877,-1
"253",5,13,0.785007423056099,1,2,-1,0,0,-1,2009,-2
"254",5,14,0.8608943556306,1,3,1,1,1,1,1800,-1
"255",5,15,0.893694776977882,1,1,1,1,1,1,1993,0
"256",5,16,0.82075792550111,-1,3,1,0,1,-1,1807,-1
"257",5,17,0.812464878882529,1,2,1,1,0,-1,2008,-2
"258",5,18,0.890559082379669,1,1,-1,0,0,-1,1839,-3
"259",5,19,0.781351226109652,1,2,1,1,0,-1,2212,-4
"260",5,20,0.84255990774202,1,1,1,1,1,1,1555,-3
"261",5,21,0.759644509226194,-1,3,1,0,1,-1,1838,-4
"262",5,22,0.781703896874541,1,1,1,1,1,1,1839,-3
"263",5,23,0.755055834358863,1,2,-1,0,0,-1,1922,-4
"264",5,24,0.675978176809953,-1,1,-1,1,0,1,1900,-3
"265",5,25,0.711309171896633,1,3,-1,0,0,-1,1870,-4
"266",5,26,0.664498372098029,1,2,-1,0,0,-1,1896,-5
"267",5,27,0.612922636011841,1,3,-1,0,0,-1,1981,-6
"268",5,28,0.54384936677915,1,2,1,1,1,1,1853,-5
"269",5,29,0.558091943980087,1,1,-1,0,0,-1,1834,-6
"270",5,30,0.427767367030112,-1,2,-1,1,0,1,1914,-5
"271",5,31,0.393004862328622,1,3,-1,0,0,-1,1838,-6
"272",5,32,0.290035903499165,-1,1,-1,1,0,1,1803,-5
"273",5,33,0.385624036486729,-1,3,1,0,1,-1,2077,-6
"274",5,34,0.41155026385814,-1,1,1,0,1,-1,1914,-7
"275",5,35,0.464173103625857,-1,2,-1,1,0,1,1877,-6
"276",5,36,0.3889021065224,-1,1,1,0,1,-1,1928,-7
"277",5,37,0.418670048034564,1,3,-1,0,0,-1,1990,-8
"278",5,38,0.370925874885283,1,2,1,1,1,1,1916,-7
"279",5,39,0.491240625681115,1,3,-1,0,0,-1,1852,-8
"280",5,40,0.383478122854414,1,2,-1,0,0,-1,1867,-9
"281",5,41,0.328951918955104,-1,1,-1,1,0,1,2204,-8
"282",5,42,0.437616392754089,-1,2,1,0,1,-1,1885,-9
"283",5,43,0.284331400173784,-1,3,-1,1,0,1,1873,-8
"284",5,44,0.179211032483597,-1,2,1,0,1,-1,2055,-9
"285",5,45,0.329387715572575,-1,1,-1,1,0,1,1887,-8
"286",5,46,0.21716513459831,1,3,-1,0,0,-1,1884,-9
"287",5,47,0.237790553923678,-1,1,-1,1,0,1,2058,-8
"288",5,48,0.133567476557125,1,3,-1,0,0,-1,1947,-9
"289",5,49,0.163841574514351,1,2,-1,0,0,-1,1913,-10
"290",5,50,0.357562005872976,-1,3,1,0,1,-1,1974,-11
"291",5,51,0.296291578126229,1,1,1,1,1,1,1903,-10
"292",5,52,0.322816240455082,-1,2,-1,1,1,-1,1885,-11
"293",5,53,0.346381412800648,1,1,1,1,1,1,1976,-10
"294",5,54,0.441235729351588,-1,2,-1,1,0,1,1843,-9
"295",5,55,0.532389807730282,1,3,1,1,1,1,1779,-8
"296",5,56,0.5309468622327,-1,2,1,0,1,-1,1764,-9
"297",5,57,0.540195397292012,1,1,1,1,1,1,1823,-8
"298",5,58,0.540084455060531,1,3,-1,0,0,-1,1979,-9
"299",5,59,0.50128348794339,-1,1,-1,1,0,1,1850,-8
"300",5,60,0.622747606059514,-1,3,-1,1,0,1,1949,-7
"301",6,1,0.458530577691272,-1,2,1,0,1,-1,3693,23
"302",6,2,0.374721798947642,1,3,-1,0,0,-1,1935,22
"303",6,3,0.32847486606176,1,1,1,1,1,1,2128,23
"304",6,4,0.256396480204118,-1,3,1,0,0,1,3393,24
"305",6,5,0.455740839254238,-1,2,1,0,1,-1,1888,23
"306",6,6,0.479661452190317,-1,1,-1,1,0,1,1872,24
"307",6,7,0.418541806498199,-1,2,-1,1,0,1,1792,25
"308",6,8,0.389256655206783,1,1,1,1,1,1,1872,26
"309",6,9,0.457054149071481,-1,3,-1,1,1,-1,1776,25
"310",6,10,0.300445192480866,-1,1,-1,1,0,1,1839,26
"311",6,11,0.367563466197801,1,2,1,1,1,1,1760,27
"312",6,12,0.464188534440905,1,3,1,1,0,-1,1792,26
"313",6,13,0.442636837130818,-1,2,1,0,1,-1,1679,25
"314",6,14,0.422915636447465,-1,3,1,0,0,1,1759,26
"315",6,15,0.446744513994157,1,1,-1,0,0,-1,1745,25
"316",6,16,0.482971413182954,1,3,-1,0,1,1,1695,26
"317",6,17,0.457345232472315,-1,2,-1,1,0,1,1664,27
"318",6,18,0.448374870759575,1,1,1,1,1,1,1536,28
"319",6,19,0.458724011512902,1,2,-1,0,0,-1,1839,27
"320",6,20,0.444302599794816,-1,1,-1,1,0,1,1711,28
"321",6,21,0.34384988990612,1,1,1,1,1,1,1840,29
"322",6,22,0.327340051802226,-1,2,-1,1,0,1,1744,30
"323",6,23,0.289766821261437,-1,3,1,0,0,1,1792,31
"324",6,24,0.407772130249397,1,2,1,1,1,1,1791,32
"325",6,25,0.3729959506078,1,1,1,1,1,1,1841,33
"326",6,26,0.412412459506584,-1,3,1,0,0,1,1872,34
"327",6,27,0.364922181984148,1,1,1,1,1,1,1760,35
"328",6,28,0.37955208590464,1,3,1,1,0,-1,1809,34
"329",6,29,0.556507809584892,1,2,1,1,1,1,1744,35
"330",6,30,0.564134320891778,1,3,-1,0,1,1,1711,36
"331",6,31,0.582941671661505,1,1,-1,0,0,-1,1792,35
"332",6,32,0.599956906515659,1,2,-1,0,0,-1,1937,34
"333",6,33,0.634445330417777,1,1,1,1,1,1,1791,35
"334",6,34,0.57535277312274,1,2,1,1,1,1,1824,36
"335",6,35,0.716060147779788,-1,3,1,0,0,1,2160,37
"336",6,36,0.712829541300225,1,2,-1,0,0,-1,2016,36
"337",6,37,0.827041091409975,1,1,-1,0,0,-1,1872,35
"338",6,38,0.775937960606976,1,3,-1,0,1,1,1808,36
"339",6,39,0.658628955084875,1,1,1,1,1,1,1745,37
"340",6,40,0.725534158518205,1,3,1,1,0,-1,1504,36
"341",6,41,0.731364555232348,1,3,-1,0,1,1,1744,37
"342",6,42,0.838199120351492,-1,1,-1,1,0,1,1823,38
"343",6,43,0.830342190423405,-1,2,1,0,1,-1,1871,37
"344",6,44,0.8055119077734,1,1,1,1,1,1,1824,38
"345",6,45,0.824850563762254,1,3,-1,0,1,1,1712,39
"346",6,46,0.668880290514216,-1,2,1,0,1,-1,2047,38
"347",6,47,0.55993255394293,-1,3,1,0,1,-1,1792,37
"348",6,48,0.522489565803458,1,2,-1,0,0,-1,1807,36
"349",6,49,0.511721726023007,-1,1,1,0,1,-1,1840,35
"350",6,50,0.580541570838733,1,2,1,1,1,1,1823,36
"351",6,51,0.619711879115188,-1,3,1,0,0,1,1776,37
"352",6,52,0.68630631894427,1,1,1,1,1,1,1648,38
"353",6,53,0.561693821794599,1,3,-1,0,1,1,1808,39
"354",6,54,0.449219818093776,-1,1,-1,1,0,1,1856,40
"355",6,55,0.399056007628221,-1,2,-1,1,0,1,1759,41
"356",6,56,0.390315514081819,-1,1,1,0,1,-1,1809,40
"357",6,57,0.48402770880218,-1,3,1,0,0,1,1808,41
"358",6,58,0.331327343085994,-1,2,1,0,1,-1,1808,40
"359",6,59,0.399401026320878,-1,3,-1,1,1,-1,1809,39
"360",6,60,0.312829827815861,-1,2,-1,1,0,1,1776,40
"361",8,1,0.47161837820895,1,2,1,1,1,1,3603,15
"362",8,2,0.46387263372633,-1,3,1,0,0,1,1837,16
"363",8,3,0.451438921618946,-1,1,-1,1,0,1,1857,17
"364",8,4,0.460785286304994,-1,3,1,0,0,1,2502,18
"365",8,5,0.503435351079054,1,2,-1,0,0,-1,1961,17
"366",8,6,0.407210806962079,-1,1,-1,1,0,1,2021,18
"367",8,7,0.394076631264003,1,2,1,1,1,1,1803,19
"368",8,8,0.495413986768213,1,1,1,1,1,1,1968,20
"369",8,9,0.532141851826025,-1,3,-1,1,1,-1,2256,19
"370",8,10,0.694177502362931,1,1,-1,0,0,-1,1751,18
"371",8,11,0.801594827073999,1,2,-1,0,0,-1,1531,17
"372",8,12,0.681647351079026,1,3,1,1,0,-1,1528,16
"373",8,13,0.644175147845456,1,2,-1,0,0,-1,1558,15
"374",8,14,0.652212412108137,1,3,-1,0,1,1,1523,16
"375",8,15,0.57994745088938,1,1,-1,0,0,-1,2092,15
"376",8,16,0.681393609269561,-1,3,1,0,0,1,1984,16
"377",8,17,0.721127404334452,1,2,1,1,0,-1,2090,15
"378",8,18,0.681599700514889,1,1,1,1,0,-1,1993,14
"379",8,19,0.641898183545167,-1,2,1,0,1,-1,1648,13
"380",8,20,0.788306283773414,1,1,-1,0,0,-1,1523,12
"381",8,21,0.788521079470009,-1,3,1,0,0,1,1714,13
"382",8,22,0.814158603085642,1,1,1,1,1,1,1582,14
"383",8,23,0.841982135032099,-1,2,1,0,1,-1,1514,13
"384",8,24,0.825461814788076,1,1,-1,0,0,-1,1707,12
"385",8,25,0.886845430895075,1,3,-1,0,1,1,1568,13
"386",8,26,0.80570972446287,1,2,-1,0,0,-1,1853,12
"387",8,27,0.589257415773222,-1,3,1,0,0,1,1553,13
"388",8,28,0.622807163146549,1,2,1,1,0,-1,1624,12
"389",8,29,0.551632814003898,-1,1,-1,1,0,1,1844,13
"390",8,30,0.392489259079626,-1,2,-1,1,1,-1,2032,12
"391",8,31,0.424673531447862,1,3,-1,0,1,1,2102,13
"392",8,32,0.33240296637531,-1,1,-1,1,0,1,2273,14
"393",8,33,0.308487413654618,-1,3,1,0,0,1,1769,15
"394",8,34,0.29653836042498,-1,1,-1,1,0,1,1693,16
"395",8,35,0.282611964347348,-1,2,-1,1,0,1,1777,17
"396",8,36,0.199231553791256,-1,1,-1,1,0,1,1541,18
"397",8,37,0.192403306622309,-1,3,1,0,0,1,1747,19
"398",8,38,0.217299082369741,-1,2,1,0,1,-1,1525,18
"399",8,39,0.377045894476101,1,3,-1,0,0,-1,1846,17
"400",8,40,0.437524461471924,-1,2,1,0,1,-1,1549,16
"401",8,41,0.46746884250116,-1,1,-1,1,0,1,1732,17
"402",8,42,0.478871963974824,1,2,-1,0,0,-1,1970,16
"403",8,43,0.465493293514197,-1,3,-1,1,1,-1,1521,15
"404",8,44,0.32595844791572,-1,2,-1,1,1,-1,1678,14
"405",8,45,0.286506533809371,-1,1,-1,1,0,1,1545,15
"406",8,46,0.260316659950506,-1,3,1,0,0,1,1562,16
"407",8,47,0.277167679003021,-1,1,-1,1,0,1,1704,17
"408",8,48,0.348496037470015,-1,3,1,0,0,1,1515,18
"409",8,49,0.327210065494275,-1,2,-1,1,0,1,1669,19
"410",8,50,0.372981131577528,-1,3,1,0,0,1,1756,20
"411",8,51,0.324383898824674,-1,1,-1,1,0,1,1519,21
"412",8,52,0.495470500835243,-1,2,1,0,0,1,1744,22
"413",8,53,0.46081664351041,1,1,1,1,1,1,1554,23
"414",8,54,0.650051907763209,1,2,1,1,0,-1,1629,22
"415",8,55,0.588888250565611,-1,3,-1,1,1,-1,1632,21
"416",8,56,0.55007999604508,-1,2,-1,1,0,1,1674,22
"417",8,57,0.666988872317079,1,1,-1,0,0,-1,1685,21
"418",8,58,0.658568787170362,1,3,1,1,1,1,1565,22
"419",8,59,0.663960641911009,-1,1,-1,1,0,1,1671,23
"420",8,60,0.83105054964961,1,3,-1,0,1,1,1710,24
"421",9,1,0.48020393573679,NA,3,NA,NA,NA,NA,NA,6
"422",9,2,0.492532952762396,-1,1,-1,1,1,-1,1767,5
"423",9,3,0.53674542656488,1,2,1,1,0,-1,1687,4
"424",9,4,0.491452243972226,-1,1,-1,1,0,1,2166,5
"425",9,5,0.509734904845117,-1,3,1,0,0,1,2148,6
"426",9,6,0.498853770929516,-1,2,-1,1,0,1,2175,7
"427",9,7,0.448118818327699,-1,3,1,0,0,1,2056,8
"428",9,8,0.431775522318179,-1,2,-1,1,1,-1,1892,7
"429",9,9,0.334900920185514,-1,1,-1,1,0,1,1655,8
"430",9,10,0.252576399348478,-1,2,1,0,0,1,1892,9
"431",9,11,0.250129486965419,-1,3,-1,1,1,-1,2041,8
"432",9,12,0.234464348771779,1,1,1,1,1,1,1733,9
"433",9,13,0.196968379539729,1,3,-1,0,0,-1,1831,8
"434",9,14,0.200082643323932,1,1,1,1,1,1,1758,9
"435",9,15,0.2530692076851,1,2,-1,0,1,1,1781,10
"436",9,16,0.234110189325319,1,1,1,1,1,1,1777,11
"437",9,17,0.266498114376823,1,3,1,1,0,-1,1776,10
"438",9,18,0.252101807471824,-1,2,-1,1,0,1,2622,11
"439",9,19,0.232472471647198,-1,3,-1,1,1,-1,1763,10
"440",9,20,0.185662315714713,-1,2,1,0,1,-1,2340,9
"441",9,21,0.24564604096739,-1,1,-1,1,0,1,1731,10
"442",9,22,0.284328512223807,1,2,1,1,0,-1,1794,9
"443",9,23,0.406115156019747,1,3,-1,0,1,1,1968,10
"444",9,24,0.421226293825031,-1,2,-1,1,1,-1,1746,9
"445",9,25,0.505787461829955,-1,1,-1,1,0,1,1782,10
"446",9,26,0.470738299423618,1,3,-1,0,1,1,1914,11
"447",9,27,0.526073569024754,-1,1,1,0,1,-1,2118,10
"448",9,28,0.377924858685025,1,3,-1,0,0,-1,1744,9
"449",9,29,0.421505997651131,-1,2,1,0,1,-1,1819,8
"450",9,30,0.412555804850891,1,3,1,1,1,1,2594,9
"451",9,31,0.392503898623247,1,1,1,1,1,1,1742,10
"452",9,32,0.35120145783479,1,2,-1,0,0,-1,1999,9
"453",9,33,0.453162434325515,1,1,1,1,1,1,1760,10
"454",9,34,0.401263727336241,1,2,1,1,1,1,1780,11
"455",9,35,0.452677523725053,-1,3,-1,1,0,1,1819,12
"456",9,36,0.396757819727694,1,2,1,1,1,1,1753,13
"457",9,37,0.546228711504797,-1,1,1,0,1,-1,1960,12
"458",9,38,0.623088032579693,1,3,-1,0,0,-1,2225,11
"459",9,39,0.676797864610813,1,1,1,1,1,1,1747,12
"460",9,40,0.690664519107051,-1,3,1,0,0,1,1776,13
"461",9,41,0.795563478952019,1,2,1,1,0,-1,1898,12
"462",9,42,0.831925839650123,-1,3,1,0,1,-1,1747,11
"463",9,43,0.796444888654922,1,1,-1,0,0,-1,1824,10
"464",9,44,0.823519195775012,1,3,-1,0,0,-1,2302,9
"465",9,45,0.794824738996856,1,2,-1,0,1,1,1753,10
"466",9,46,0.676066901229159,1,1,1,1,1,1,1778,11
"467",9,47,0.588974073976885,1,2,-1,0,1,1,1767,12
"468",9,48,0.552959275921832,-1,1,1,0,1,-1,1762,11
"469",9,49,0.541020089339077,-1,3,1,0,0,1,2525,12
"470",9,50,0.538338449372292,1,1,1,1,1,1,1730,13
"471",9,51,0.513993279655096,1,2,-1,0,1,1,1788,14
"472",9,52,0.526306183495869,-1,3,1,0,0,1,1752,15
"473",9,53,0.447793638521305,-1,2,-1,1,1,-1,1736,14
"474",9,54,0.433393115243403,-1,3,1,0,0,1,2211,15
"475",9,55,0.476775851451895,-1,1,-1,1,0,1,1755,16
"476",9,56,0.533427589764677,1,3,-1,0,1,1,1720,17
"477",9,57,0.513130388595449,-1,2,1,0,0,1,1777,18
"478",9,58,0.618146299589232,-1,1,1,0,1,-1,1711,17
"479",9,59,0.652559503699279,-1,2,1,0,0,1,1866,18
"480",9,60,0.680495187745691,1,1,1,1,1,1,1747,19
"481",10,1,0.52999142408371,1,3,-1,0,0,-1,3858,-5
"482",10,2,0.617048867488952,1,1,1,1,1,1,2412,-4
"483",10,3,0.545531615649541,-1,2,1,0,1,-1,2076,-5
"484",10,4,0.62634357490919,-1,1,-1,1,1,-1,1934,-6
"485",10,5,0.591745332562819,-1,3,1,0,1,-1,2158,-7
"486",10,6,0.640491199627315,1,2,-1,0,0,-1,1832,-8
"487",10,7,0.516019693490453,-1,3,1,0,0,1,1810,-7
"488",10,8,0.516344890614632,-1,2,-1,1,0,1,2217,-6
"489",10,9,0.518180825287479,1,1,-1,0,0,-1,2133,-7
"490",10,10,0.508523623115356,1,2,-1,0,1,1,1913,-6
"491",10,11,0.602061172755004,-1,3,1,0,1,-1,1837,-7
"492",10,12,0.630402448795111,-1,1,1,0,1,-1,1828,-8
"493",10,13,0.626456097398287,1,3,-1,0,1,1,1838,-7
"494",10,14,0.702047441838919,-1,1,-1,1,1,-1,1867,-8
"495",10,15,0.556540958494203,-1,2,-1,1,0,1,1922,-7
"496",10,16,0.582077560168474,1,1,1,1,0,-1,1853,-8
"497",10,17,0.624287752059296,-1,3,1,0,0,1,1774,-7
"498",10,18,0.600684756183611,1,2,1,1,0,-1,1791,-8
"499",10,19,0.589902303741781,1,3,1,1,0,-1,1886,-9
"500",10,20,0.721902256928597,-1,2,1,0,0,1,1886,-8
"501",10,21,0.661405376415778,1,1,-1,0,0,-1,1679,-9
"502",10,22,0.723039987806053,1,2,1,1,1,1,2257,-8
"503",10,23,0.729182074958007,1,3,-1,0,0,-1,1835,-9
"504",10,24,0.812348728978289,-1,2,1,0,1,-1,1807,-10
"505",10,25,0.867052807064606,1,1,1,1,1,1,1869,-9
"506",10,26,0.863698733964866,1,3,1,1,1,1,2064,-8
"507",10,27,0.888872447930944,1,1,1,1,1,1,2174,-7
"508",10,28,0.811613204733882,1,3,-1,0,1,1,1919,-6
"509",10,29,0.801632097765444,1,2,-1,0,1,1,2032,-5
"510",10,30,0.810418445790864,1,3,-1,0,1,1,1903,-4
"511",10,31,0.828809676019923,1,1,1,1,1,1,2315,-3
"512",10,32,0.747998068981565,1,2,-1,0,1,1,2160,-2
"513",10,33,0.602900638915729,-1,1,1,0,1,-1,2206,-3
"514",10,34,0.371443885267427,-1,2,1,0,0,1,2204,-2
"515",10,35,0.330945316995442,1,3,1,1,1,1,2175,-1
"516",10,36,0.37251313819929,-1,2,1,0,0,1,2138,0
"517",10,37,0.294433793294408,-1,1,-1,1,1,-1,2047,-1
"518",10,38,0.218703646063302,-1,3,1,0,0,1,2112,0
"519",10,39,0.268564176911203,1,1,-1,0,0,-1,2031,-1
"520",10,40,0.229657791882927,1,3,-1,0,0,-1,1985,-2
"521",10,41,0.326625779545027,-1,2,-1,1,0,1,1965,-1
"522",10,42,0.192900779256592,-1,3,1,0,0,1,2147,0
"523",10,43,0.164116234457846,1,1,1,1,0,-1,2240,-1
"524",10,44,0.122929489841604,-1,3,1,0,0,1,1995,0
"525",10,45,0.159531578370423,-1,2,-1,1,0,1,1887,1
"526",10,46,0.155480043925835,-1,1,-1,1,1,-1,2113,0
"527",10,47,0.132085822352872,-1,2,-1,1,0,1,1840,1
"528",10,48,0.161491334408745,-1,1,-1,1,0,1,1979,2
"529",10,49,0.191314558733921,1,3,1,1,0,-1,2182,1
"530",10,50,0.290077939827087,-1,1,-1,1,1,-1,1952,0
"531",10,51,0.239070364077857,-1,2,1,0,1,-1,2011,-1
"532",10,52,0.236970572849623,-1,3,1,0,1,-1,1951,-2
"533",10,53,0.300333159584061,1,2,1,1,1,1,1971,-1
"534",10,54,0.329892494458857,-1,3,1,0,1,-1,1964,-2
"535",10,55,0.272955089479826,-1,1,-1,1,1,-1,2144,-3
"536",10,56,0.229532029711296,-1,3,-1,1,0,1,2072,-2
"537",10,57,0.178210716616891,1,2,1,1,0,-1,2191,-3
"538",10,58,0.210327565655711,1,1,1,1,0,-1,1907,-4
"539",10,59,0.415756033571784,1,2,1,1,0,-1,1898,-5
"540",10,60,0.502116024653013,-1,1,-1,1,0,1,1807,-4
"541",11,1,0.401580161381489,1,1,1,1,0,-1,4525,12
"542",11,2,0.489544912635552,-1,2,-1,1,1,-1,2764,11
"543",11,3,0.37400963965719,-1,3,1,0,0,1,3071,12
"544",11,4,0.327804163189617,-1,2,-1,1,0,1,1880,13
"545",11,5,0.307443033204699,-1,1,-1,1,1,-1,2065,12
"546",11,6,0.389673512803078,-1,3,1,0,1,-1,1820,11
"547",11,7,0.399898110931203,1,1,1,1,0,-1,2290,10
"548",11,8,0.345532406499348,1,3,-1,0,1,1,2097,11
"549",11,9,0.313693831958905,-1,2,-1,1,1,-1,2428,10
"550",11,10,0.377574501630939,-1,3,-1,1,1,-1,1937,9
"551",11,11,0.481344051727915,-1,1,-1,1,0,1,1854,10
"552",11,12,0.495170969614934,-1,2,1,0,1,-1,1836,9
"553",11,13,0.477604383181978,1,1,1,1,1,1,1649,10
"554",11,14,0.468892506041082,-1,2,-1,1,0,1,2120,11
"555",11,15,0.386654096714212,-1,3,1,0,1,-1,2098,10
"556",11,16,0.456651166504274,1,2,-1,0,0,-1,2102,9
"557",11,17,0.509224647308721,-1,1,1,0,1,-1,1859,8
"558",11,18,0.400680898580428,1,3,-1,0,0,-1,2296,7
"559",11,19,0.25796482018712,-1,1,1,0,1,-1,1787,6
"560",11,20,0.174336678043973,-1,3,1,0,0,1,2695,7
"561",11,21,0.233838045913473,1,3,1,1,0,-1,1905,6
"562",11,22,0.180646837489274,-1,1,-1,1,1,-1,2087,5
"563",11,23,0.249387304105996,-1,2,1,0,0,1,2196,6
"564",11,24,0.336620387679528,-1,1,1,0,0,1,1651,7
"565",11,25,0.316525515272282,-1,3,1,0,1,-1,1581,6
"566",11,26,0.388367305379689,-1,2,1,0,0,1,1806,7
"567",11,27,0.386207175254914,-1,3,1,0,0,1,1888,8
"568",11,28,0.299662529905128,1,2,-1,0,1,1,1824,9
"569",11,29,0.423591076704953,1,1,1,1,0,-1,1764,8
"570",11,30,0.3572278666752,-1,2,-1,1,0,1,1837,9
"571",11,31,0.362423692015248,-1,3,1,0,1,-1,2161,8
"572",11,32,0.432576400224471,1,1,-1,0,0,-1,1954,7
"573",11,33,0.384250909461303,-1,3,1,0,0,1,1852,8
"574",11,34,0.421748526551486,1,1,1,1,0,-1,1785,7
"575",11,35,0.4142714544042,1,2,-1,0,1,1,1945,8
"576",11,36,0.556791554984957,1,1,1,1,1,1,2240,9
"577",11,37,0.525291964104181,-1,3,1,0,0,1,4549,10
"578",11,38,0.61800215229604,-1,2,1,0,0,1,2099,11
"579",11,39,0.704265693680659,1,3,-1,0,1,1,1938,12
"580",11,40,0.611734619638847,-1,2,-1,1,0,1,1960,13
"581",11,41,0.571880742956853,1,2,1,1,0,-1,2253,12
"582",11,42,0.608158860615619,1,3,1,1,0,-1,1856,11
"583",11,43,0.723854061606571,1,1,1,1,0,-1,2042,10
"584",11,44,0.753941477305001,1,3,1,1,0,-1,1749,9
"585",11,45,0.752816312210758,1,2,1,1,1,1,1646,10
"586",11,46,0.788958271360994,1,1,1,1,1,1,2427,11
"587",11,47,0.878697521988988,1,2,1,1,1,1,2299,12
"588",11,48,0.828834184014212,1,1,1,1,1,1,1577,13
"589",11,49,0.879349103449471,1,3,-1,0,0,-1,2128,12
"590",11,50,0.850725954379347,1,1,1,1,1,1,2201,13
"591",11,51,0.755117287581535,-1,2,-1,1,1,-1,1834,12
"592",11,52,0.851872021792013,1,3,-1,0,0,-1,1934,11
"593",11,53,0.771959658726064,-1,2,1,0,1,-1,1862,10
"594",11,54,0.735478936063476,1,3,-1,0,1,1,1881,11
"595",11,55,0.80837285969329,1,1,1,1,1,1,1828,12
"596",11,56,0.89308012778436,1,3,1,1,1,1,2641,13
"597",11,57,0.797067019880576,1,2,-1,0,0,-1,1903,12
"598",11,58,0.723239629782101,-1,1,-1,1,0,1,1974,13
"599",11,59,0.651357401768239,-1,2,1,0,1,-1,1625,12
"600",11,60,0.498143220347939,-1,1,1,0,1,-1,1888,11
"601",12,1,0.48879097821191,1,2,1,1,1,1,1904,-3
"602",12,2,0.476747794879115,-1,3,1,0,0,1,2223,-2
"603",12,3,0.526976549093904,1,1,1,1,1,1,1896,-1
"604",12,4,0.524799030913609,-1,3,1,0,0,1,2080,0
"605",12,5,0.553889553130039,1,2,-1,0,0,-1,1767,-1
"606",12,6,0.495099783785732,1,1,-1,0,0,-1,1784,-2
"607",12,7,0.496067552520736,1,2,1,1,1,1,1520,-1
"608",12,8,0.454066732620883,-1,1,-1,1,1,-1,3093,-2
"609",12,9,0.464280197417428,-1,3,1,0,0,1,1794,-1
"610",12,10,0.409231255251485,-1,1,-1,1,0,1,1752,0
"611",12,11,0.418184898745361,-1,2,1,0,1,-1,1767,-1
"612",12,12,0.288645686889733,-1,3,1,0,0,1,1760,0
"613",12,13,0.22563015261152,-1,2,1,0,0,1,1960,1
"614",12,14,0.207696562370845,-1,3,1,0,0,1,1862,2
"615",12,15,0.179151887756799,-1,1,-1,1,0,1,1736,3
"616",12,16,0.111890278914356,-1,3,1,0,0,1,1736,4
"617",12,17,0.112977457934725,-1,2,1,0,0,1,1817,5
"618",12,18,0.119852309790859,-1,1,-1,1,0,1,1807,6
"619",12,19,0.161222201336785,-1,2,-1,1,0,1,1592,7
"620",12,20,0.268915246332118,-1,1,-1,1,0,1,1776,8
"621",12,21,0.301812058722738,1,1,1,1,0,-1,1880,7
"622",12,22,0.167154321573044,-1,2,1,0,1,-1,1768,6
"623",12,23,0.251448940864931,-1,3,1,0,0,1,1920,7
"624",12,24,0.259279655807156,-1,2,1,0,0,1,2047,8
"625",12,25,0.22314525962096,1,1,1,1,0,-1,1832,7
"626",12,26,0.204841130549611,-1,3,-1,1,1,-1,1840,6
"627",12,27,0.243307123076548,-1,1,-1,1,0,1,1704,7
"628",12,28,0.273471016419359,-1,3,-1,1,0,1,1752,8
"629",12,29,0.34036200334068,-1,2,1,0,0,1,1768,9
"630",12,30,0.408442672652174,-1,3,1,0,0,1,1745,10
"631",12,31,0.300329032315072,-1,1,-1,1,0,1,2000,11
"632",12,32,0.391392807923662,-1,2,1,0,0,1,1823,12
"633",12,33,0.443099536475773,-1,1,-1,1,0,1,1817,13
"634",12,34,0.402920818018438,1,2,1,1,0,-1,2743,12
"635",12,35,0.43137817624604,1,3,-1,0,0,-1,1776,11
"636",12,36,0.50913721410367,1,2,1,1,1,1,1768,12
"637",12,37,0.498040057367885,-1,1,-1,1,1,-1,1874,11
"638",12,38,0.579902455658648,1,3,1,1,0,-1,1573,10
"639",12,39,0.608028953402626,1,1,1,1,1,1,1744,11
"640",12,40,0.508731128029967,1,3,-1,0,1,1,1783,12
"641",12,41,0.552363458229955,1,3,1,1,1,1,1784,13
"642",12,42,0.650837478444831,1,1,-1,0,1,1,2168,14
"643",12,43,0.709590466428986,-1,2,-1,1,1,-1,1841,13
"644",12,44,0.706759832806843,-1,1,1,0,0,1,1774,14
"645",12,45,0.666344846164177,-1,3,1,0,0,1,1552,15
"646",12,46,0.683109927501205,1,2,1,1,0,-1,1785,14
"647",12,47,0.595501383701312,-1,3,-1,1,1,-1,1887,13
"648",12,48,0.58150247423993,1,2,1,1,0,-1,1784,12
"649",12,49,0.616946732816934,1,1,-1,0,1,1,1865,13
"650",12,50,0.592575353651954,-1,2,1,0,1,-1,2087,12
"651",12,51,0.630785056506228,1,3,-1,0,1,1,2184,13
"652",12,52,0.728492940757306,1,1,-1,0,1,1,2752,14
"653",12,53,0.756769228318762,1,3,-1,0,1,1,1864,15
"654",12,54,0.662798793316916,1,1,1,1,1,1,1872,16
"655",12,55,0.651184751972033,-1,2,-1,1,1,-1,1832,15
"656",12,56,0.514891002195391,-1,1,-1,1,0,1,1832,16
"657",12,57,0.499324613558993,-1,3,1,0,0,1,1791,17
"658",12,58,0.527537245000488,-1,2,1,0,0,1,2968,18
"659",12,59,0.672502343464845,-1,3,1,0,0,1,1823,19
"660",12,60,0.739085553356493,1,2,1,1,0,-1,1896,18
"661",15,1,0.508160811895505,1,1,1,1,1,1,2229,11
"662",15,2,0.380244761677274,1,2,-1,0,1,1,2799,12
"663",15,3,0.456231886065274,-1,3,1,0,0,1,2384,13
"664",15,4,0.408391292077214,-1,2,-1,1,0,1,1800,14
"665",15,5,0.350806335059545,-1,1,-1,1,0,1,1768,15
"666",15,6,0.274709764679749,1,3,-1,0,0,-1,2313,14
"667",15,7,0.415443015260505,1,1,1,1,1,1,1799,15
"668",15,8,0.466466178063753,1,3,-1,0,1,1,1887,16
"669",15,9,0.466157643124668,-1,2,-1,1,0,1,1840,17
"670",15,10,0.514891517083884,1,3,1,1,0,-1,3063,16
"671",15,11,0.552805422736809,-1,1,-1,1,0,1,2184,17
"672",15,12,0.486539581572392,1,2,1,1,1,1,2415,18
"673",15,13,0.459872960202514,-1,1,1,0,1,-1,1824,17
"674",15,14,0.436377462064846,-1,2,-1,1,0,1,1753,18
"675",15,15,0.550575271138632,1,3,1,1,0,-1,4110,17
"676",15,16,0.638794140636056,-1,2,1,0,1,-1,1816,16
"677",15,17,0.680804253803907,1,1,1,1,1,1,1791,17
"678",15,18,0.538840356256411,-1,3,1,0,1,-1,1735,16
"679",15,19,0.556418131472171,1,1,1,1,1,1,1784,17
"680",15,20,0.723647443895722,-1,3,1,0,0,1,1823,18
"681",15,21,0.781257799867598,1,2,-1,0,0,-1,1759,17
"682",15,22,0.7608126347856,1,3,-1,0,1,1,1743,18
"683",15,23,0.66086055803198,1,1,1,1,1,1,1512,19
"684",15,24,0.577004624833783,-1,3,1,0,1,-1,1647,18
"685",15,25,0.490580955803872,1,2,-1,0,0,-1,1742,17
"686",15,26,0.371398375466469,-1,1,-1,1,0,1,1800,18
"687",15,27,0.253181906348811,-1,2,-1,1,0,1,1775,19
"688",15,28,0.145069531269412,-1,1,1,0,1,-1,1929,18
"689",15,29,0.146523903526911,-1,3,1,0,0,1,1751,19
"690",15,30,0.14196001217919,-1,1,1,0,1,-1,1840,18
"691",15,31,0.106528879889734,-1,2,1,0,1,-1,1783,17
"692",15,32,0.270255608979682,-1,3,-1,1,1,-1,1712,16
"693",15,33,0.42032124497227,-1,2,-1,1,1,-1,1721,15
"694",15,34,0.590094713668162,-1,3,1,0,1,-1,1607,14
"695",15,35,0.663802841084964,1,1,1,1,1,1,1744,15
"696",15,36,0.711710570978513,1,3,-1,0,1,1,1552,16
"697",15,37,0.806218314973576,1,2,-1,0,0,-1,1840,15
"698",15,38,0.812676607953558,1,1,1,1,1,1,1688,16
"699",15,39,0.804134900380423,1,2,1,1,0,-1,1767,15
"700",15,40,0.691243762928134,-1,1,-1,1,0,1,1887,16
"701",15,41,0.664244470602738,-1,3,-1,1,0,1,1607,17
"702",15,42,0.475828405210773,1,1,-1,0,0,-1,1751,16
"703",15,43,0.439577165213478,-1,2,-1,1,0,1,1848,17
"704",15,44,0.390235081895748,-1,1,-1,1,0,1,1777,18
"705",15,45,0.4394125253051,-1,3,-1,1,0,1,1632,19
"706",15,46,0.337941359232217,-1,2,1,0,1,-1,1800,18
"707",15,47,0.357135397182739,-1,3,1,0,1,-1,1838,17
"708",15,48,0.268894193544002,1,2,-1,0,0,-1,1849,16
"709",15,49,0.309587876914526,-1,1,1,0,1,-1,1831,15
"710",15,50,0.353804500454446,1,2,-1,0,1,1,2153,16
"711",15,51,0.401626559535278,1,3,-1,0,1,1,2375,17
"712",15,52,0.524652641794361,1,1,1,1,1,1,1599,18
"713",15,53,0.434446032168891,-1,3,1,0,0,1,1673,19
"714",15,54,0.44798219275505,-1,1,-1,1,0,1,1815,20
"715",15,55,0.445214010694615,-1,2,-1,1,0,1,1839,21
"716",15,56,0.505638402514246,1,1,1,1,1,1,1745,22
"717",15,57,0.518572279101229,-1,3,1,0,0,1,1815,23
"718",15,58,0.460263977229226,1,2,1,1,1,1,1824,24
"719",15,59,0.426632896779179,-1,3,1,0,0,1,1523,25
"720",15,60,0.39924294637659,1,2,-1,0,0,-1,1950,24
"721",16,1,0.453132680477574,-1,3,1,0,0,1,3595,17
"722",16,2,0.463181716922954,-1,1,1,0,1,-1,1522,16
"723",16,3,0.49918361826359,-1,2,-1,1,0,1,1677,17
"724",16,4,0.461156660604415,1,1,1,1,1,1,1546,18
"725",16,5,0.404958458575043,-1,3,1,0,0,1,1852,19
"726",16,6,0.481291669413316,-1,2,1,0,0,1,1531,20
"727",16,7,0.452761284650729,-1,3,1,0,0,1,1512,21
"728",16,8,0.576564420920704,-1,2,1,0,0,1,1527,22
"729",16,9,0.508638984523448,-1,1,-1,1,0,1,1800,23
"730",16,10,0.464773181549346,1,2,-1,0,0,-1,1616,22
"731",16,11,0.528955289138929,1,3,-1,0,1,1,1698,23
"732",16,12,0.57850626628953,1,1,1,1,1,1,1556,24
"733",16,13,0.578646933547389,1,3,1,1,0,-1,1784,23
"734",16,14,0.51323715359361,-1,1,-1,1,0,1,1598,24
"735",16,15,0.545748897663312,-1,2,1,0,0,1,1524,25
"736",16,16,0.528538225115179,1,1,1,1,1,1,1530,26
"737",16,17,0.659169667091594,1,3,1,1,0,-1,1683,25
"738",16,18,0.617690876406201,-1,2,-1,1,0,1,1511,26
"739",16,19,0.635629130274235,1,3,-1,0,1,1,1636,27
"740",16,20,0.631694045244884,1,2,-1,0,1,1,1621,28
"741",16,21,0.656347369046809,-1,2,-1,1,1,-1,1580,27
"742",16,22,0.691937645809463,-1,3,1,0,0,1,1657,28
"743",16,23,0.685181673742186,-1,1,-1,1,0,1,1563,29
"744",16,24,0.749687321582235,-1,3,-1,1,1,-1,1899,28
"745",16,25,0.837644523479437,-1,2,-1,1,1,-1,1581,27
"746",16,26,0.826771878560513,-1,1,-1,1,0,1,1522,28
"747",16,27,0.772658457575033,1,2,1,1,0,-1,1645,27
"748",16,28,0.86867347912668,1,1,1,1,1,1,1504,28
"749",16,29,0.730075600842939,-1,3,1,0,1,-1,1638,27
"750",16,30,0.752749114044715,1,1,1,1,1,1,1752,28
"751",16,31,0.794010612296946,1,2,1,1,0,-1,1553,27
"752",16,32,0.822292554341897,1,3,-1,0,1,1,1536,28
"753",16,33,0.849599207352736,1,2,-1,0,1,1,1530,29
"754",16,34,0.707175014385798,1,3,-1,0,1,1,1616,30
"755",16,35,0.703080709050289,-1,1,-1,1,0,1,1539,31
"756",16,36,0.619325330499466,1,3,-1,0,1,1,1647,32
"757",16,37,0.57571355159886,1,2,1,1,0,-1,2050,31
"758",16,38,0.59520336342738,-1,1,-1,1,0,1,1602,32
"759",16,39,0.568783355273808,-1,2,1,0,0,1,1553,33
"760",16,40,0.467501506560673,-1,1,-1,1,0,1,1649,34
"761",16,41,0.562234141976078,1,1,-1,0,0,-1,1672,33
"762",16,42,0.404398543285572,1,2,1,1,0,-1,1668,32
"763",16,43,0.381950869657055,1,3,-1,0,1,1,1563,33
"764",16,44,0.273652837488282,-1,2,-1,1,1,-1,1586,32
"765",16,45,0.307509149616855,1,1,1,1,1,1,1538,33
"766",16,46,0.255975205939561,1,3,1,1,0,-1,1630,32
"767",16,47,0.294732851410039,-1,1,1,0,1,-1,1617,31
"768",16,48,0.256976000273413,-1,3,1,0,0,1,1601,32
"769",16,49,0.320799597986332,-1,2,1,0,0,1,1658,33
"770",16,50,0.411553561478572,-1,3,1,0,0,1,1524,34
"771",16,51,0.30589178406461,-1,1,1,0,1,-1,1568,33
"772",16,52,0.266326825267811,-1,2,1,0,0,1,1753,34
"773",16,53,0.215479388344362,-1,1,1,0,1,-1,1552,33
"774",16,54,0.360778781322146,1,2,-1,0,1,1,1854,34
"775",16,55,0.328918681233839,1,3,-1,0,1,1,1585,35
"776",16,56,0.409592445024568,-1,2,-1,1,1,-1,1684,34
"777",16,57,0.409818319117007,-1,1,-1,1,0,1,1699,35
"778",16,58,0.45344523099014,-1,3,1,0,0,1,1722,36
"779",16,59,0.38808011038664,1,1,1,1,1,1,1711,37
"780",16,60,0.465517880417125,1,3,1,1,0,-1,1678,36
"781",17,1,0.55332003114745,-1,2,1,0,1,-1,4370,-5
"782",17,2,0.586012363860813,-1,3,-1,1,0,1,2964,-4
"783",17,3,0.572550211045126,-1,1,-1,1,0,1,2160,-3
"784",17,4,0.576763105305364,1,3,-1,0,0,-1,3132,-4
"785",17,5,0.623681442011202,1,2,-1,0,0,-1,2359,-5
"786",17,6,0.535919637645794,-1,1,-1,1,1,-1,1996,-6
"787",17,7,0.548805748703304,-1,2,1,0,1,-1,2679,-7
"788",17,8,0.532285952735261,-1,1,1,0,0,1,4387,-6
"789",17,9,0.431073439928843,-1,3,1,0,1,-1,2076,-7
"790",17,10,0.407120740344688,-1,1,-1,1,1,-1,2225,-8
"791",17,11,0.416871152165162,-1,2,-1,1,0,1,1943,-7
"792",17,12,0.287653899491416,-1,3,-1,1,0,1,1880,-6
"793",17,13,0.293989475753431,-1,2,1,0,1,-1,2070,-7
"794",17,14,0.242510248775759,1,3,-1,0,0,-1,1939,-8
"795",17,15,0.233626998552037,-1,1,-1,1,1,-1,1918,-9
"796",17,16,0.207413973322934,-1,3,1,0,0,1,1861,-8
"797",17,17,0.269686679710378,-1,2,-1,1,0,1,1999,-7
"798",17,18,0.167094396431936,-1,1,-1,1,0,1,1921,-6
"799",17,19,0.197578322200332,-1,2,-1,1,0,1,1990,-5
"800",17,20,0.149305628259096,-1,1,-1,1,0,1,1862,-4
"801",17,21,0.250483826653428,-1,3,1,0,0,1,2078,-3
"802",17,22,0.181525774166514,1,1,-1,0,0,-1,2224,-4
"803",17,23,0.21786501520377,-1,2,1,0,1,-1,1856,-5
"804",17,24,0.16085509077897,-1,1,1,0,0,1,2208,-4
"805",17,25,0.270376643938227,-1,3,-1,1,0,1,2213,-3
"806",17,26,0.271285389824162,1,2,-1,0,0,-1,2205,-4
"807",17,27,0.446936936294963,1,3,-1,0,0,-1,2285,-5
"808",17,28,0.440490021387546,1,2,1,1,1,1,1855,-4
"809",17,29,0.495468466062326,1,1,1,1,1,1,1952,-3
"810",17,30,0.478875144735009,1,2,1,1,1,1,1910,-2
"811",17,31,0.547436041264827,-1,3,1,0,1,-1,1882,-3
"812",17,32,0.636476916727852,1,1,1,1,1,1,1866,-2
"813",17,33,0.644039454166447,1,3,-1,0,1,1,2172,-1
"814",17,34,0.660216589451196,1,1,1,1,1,1,1998,0
"815",17,35,0.622259764318246,1,2,1,1,1,1,2067,1
"816",17,36,0.615291066260155,1,1,1,1,1,1,2230,2
"817",17,37,0.613076553591208,-1,3,1,0,1,-1,2653,1
"818",17,38,0.648356880987345,1,2,1,1,0,-1,1824,0
"819",17,39,0.651362646231405,1,3,-1,0,1,1,2002,1
"820",17,40,0.702006272036826,-1,2,-1,1,1,-1,2138,0
"821",17,41,0.68181448044143,1,1,-1,0,1,1,2208,1
"822",17,42,0.5595748547521,1,2,-1,0,1,1,2653,2
"823",17,43,0.61602636049404,1,3,1,1,1,1,1998,3
"824",17,44,0.682303657043642,-1,2,1,0,1,-1,2067,2
"825",17,45,0.595870531118176,-1,1,-1,1,1,-1,2165,1
"826",17,46,0.614174117314536,1,3,-1,0,0,-1,2490,0
"827",17,47,0.539530087377046,1,1,1,1,1,1,2064,1
"828",17,48,0.613260434780479,1,3,-1,0,1,1,2518,2
"829",17,49,0.566140461215942,1,2,1,1,1,1,2972,3
"830",17,50,0.593822059986977,1,3,-1,0,1,1,2063,4
"831",17,51,0.577624002949906,1,1,1,1,1,1,2003,5
"832",17,52,0.675162806670128,1,2,1,1,1,1,2083,6
"833",17,53,0.667004428187757,-1,1,-1,1,0,1,2368,7
"834",17,54,0.702092843149965,-1,2,1,0,1,-1,2104,6
"835",17,55,0.573168184991213,-1,3,-1,1,1,-1,2042,5
"836",17,56,0.406504761425594,1,2,-1,0,0,-1,1872,4
"837",17,57,0.542866633894799,1,1,1,1,1,1,1998,5
"838",17,58,0.466830825295112,1,3,-1,0,1,1,2087,6
"839",17,59,0.455227809317292,1,1,-1,0,0,-1,2933,5
"840",17,60,0.337196255891338,-1,3,1,0,0,1,2118,6
"841",18,1,0.592283178586513,-1,2,-1,1,0,1,4418,-3
"842",18,2,0.617854200871294,1,3,-1,0,1,1,4477,-2
"843",18,3,0.635633105130148,1,1,1,1,1,1,2297,-1
"844",18,4,0.620907539776913,1,3,1,1,0,-1,2391,-2
"845",18,5,0.510715080280695,1,2,-1,0,1,1,4236,-1
"846",18,6,0.530672722548768,-1,1,-1,1,0,1,2380,0
"847",18,7,0.546398509107203,-1,2,-1,1,1,-1,2871,-1
"848",18,8,0.495408850528226,-1,1,1,0,1,-1,4184,-2
"849",18,9,0.450577765425285,-1,3,1,0,1,-1,2272,-3
"850",18,10,0.356505799379971,1,1,1,1,1,1,2087,-2
"851",18,11,0.356697187184589,-1,2,-1,1,1,-1,2068,-3
"852",18,12,0.27629177760923,-1,3,-1,1,1,-1,1984,-4
"853",18,13,0.142450828821617,-1,2,1,0,1,-1,2073,-5
"854",18,14,0.13633865321609,-1,3,1,0,1,-1,1921,-6
"855",18,15,0.111001142422596,-1,1,-1,1,1,-1,2765,-7
"856",18,16,0.133472905951648,1,3,-1,0,0,-1,2011,-8
"857",18,17,0.410794695978276,-1,2,-1,1,0,1,2377,-7
"858",18,18,0.361637998433078,-1,1,-1,1,1,-1,2290,-8
"859",18,19,0.347508922783422,-1,2,1,0,1,-1,2971,-9
"860",18,20,0.27950361152693,-1,1,-1,1,0,1,2715,-8
"861",18,21,0.263062487237223,-1,3,-1,1,0,1,2071,-7
"862",18,22,0.391377672187665,1,1,-1,0,0,-1,2049,-8
"863",18,23,0.454953301645186,1,2,-1,0,0,-1,2916,-9
"864",18,24,0.539679627992937,1,1,1,1,1,1,1969,-8
"865",18,25,0.554531933389528,1,3,-1,0,0,-1,1740,-9
"866",18,26,0.390691069309354,1,2,1,1,1,1,1981,-8
"867",18,27,0.42982488478089,1,3,-1,0,0,-1,2090,-9
"868",18,28,0.327555196102743,-1,2,1,0,1,-1,2048,-10
"869",18,29,0.31042453454659,-1,1,-1,1,1,-1,2359,-11
"870",18,30,0.386852152102111,-1,2,-1,1,0,1,2488,-10
"871",18,31,0.368466640988478,1,3,-1,0,0,-1,2055,-11
"872",18,32,0.45203132982861,1,1,1,1,1,1,1946,-10
"873",18,33,0.418806362908835,-1,3,1,0,1,-1,2149,-11
"874",18,34,0.371717400940295,-1,1,-1,1,0,1,1975,-10
"875",18,35,0.412910419410626,-1,2,-1,1,0,1,2165,-9
"876",18,36,0.507672785707609,-1,1,-1,1,0,1,3434,-8
"877",18,37,0.598963495761944,-1,3,1,0,1,-1,2025,-9
"878",18,38,0.63944344803419,-1,2,1,0,1,-1,2127,-10
"879",18,39,0.793364483111349,1,3,1,1,1,1,1960,-9
"880",18,40,0.777742722361992,-1,2,-1,1,0,1,2508,-8
"881",18,41,0.70690915019453,-1,1,1,0,1,-1,1992,-9
"882",18,42,0.585272921233823,1,2,-1,0,0,-1,1940,-10
"883",18,43,0.556325779870325,1,3,-1,0,0,-1,1918,-11
"884",18,44,0.424396349273435,1,2,-1,0,0,-1,2388,-12
"885",18,45,0.441577069149943,1,1,1,1,1,1,3135,-11
"886",18,46,0.377849841939811,-1,3,1,0,1,-1,1937,-12
"887",18,47,0.479985504744104,-1,1,1,0,1,-1,6030,-13
"888",18,48,0.503544368291262,1,3,-1,0,0,-1,2252,-14
"889",18,49,0.559396399821624,-1,2,1,0,1,-1,4105,-15
"890",18,50,0.679677115914167,1,3,-1,0,0,-1,2520,-16
"891",18,51,0.727448895742327,-1,1,-1,1,0,1,2299,-15
"892",18,52,0.676061948639716,-1,2,1,0,1,-1,2773,-16
"893",18,53,0.714887310030365,1,1,1,1,1,1,1952,-15
"894",18,54,0.645039610013875,NA,2,NA,NA,NA,NA,NA,-15
"895",18,55,0.614632297196285,1,3,-1,0,0,-1,3866,-16
"896",18,56,0.522409896605891,1,2,1,1,1,1,2155,-15
"897",18,57,0.457817636706246,-1,1,-1,1,0,1,2219,-14
"898",18,58,0.479703166001667,-1,3,-1,1,0,1,2262,-13
"899",18,59,0.461210344983008,1,1,-1,0,0,-1,2236,-14
"900",18,60,0.536279567812838,-1,3,1,0,1,-1,1967,-15
"901",19,1,0.516766868671402,1,3,-1,0,0,-1,1696,13
"902",19,2,0.480752175519177,-1,1,1,0,1,-1,2445,12
"903",19,3,0.436639790756413,1,2,1,1,1,1,2325,13
"904",19,4,0.333114217695909,-1,1,1,0,0,1,2009,14
"905",19,5,0.415647428480169,-1,3,1,0,0,1,2003,15
"906",19,6,0.48168276712654,1,2,-1,0,0,-1,2234,14
"907",19,7,0.65682108609122,1,3,-1,0,1,1,2147,15
"908",19,8,0.653798899080008,-1,2,1,0,1,-1,2036,14
"909",19,9,0.638928374194791,1,1,1,1,1,1,2003,15
"910",19,10,0.617022342131672,1,2,1,1,0,-1,2132,14
"911",19,11,0.646238773130993,1,3,1,1,0,-1,2049,13
"912",19,12,0.586333290302914,1,1,1,1,1,1,2019,14
"913",19,13,0.603985126928929,-1,3,1,0,1,-1,1937,13
"914",19,14,0.590905590239851,1,1,1,1,1,1,2013,14
"915",19,15,0.552965964933287,1,2,1,1,0,-1,1925,13
"916",19,16,0.504738626965294,-1,1,1,0,1,-1,1941,12
"917",19,17,0.331997259401092,-1,3,1,0,1,-1,2454,11
"918",19,18,0.442372259961468,-1,2,1,0,1,-1,2051,10
"919",19,19,0.371051214635212,-1,3,1,0,0,1,2009,11
"920",19,20,0.329980832023051,-1,2,-1,1,0,1,1928,12
"921",19,21,0.345591961354661,-1,2,-1,1,0,1,1850,13
"922",19,22,0.3358656510657,1,3,-1,0,0,-1,2442,12
"923",19,23,0.407675150199564,1,1,1,1,1,1,1851,13
"924",19,24,0.481900270415951,1,3,1,1,1,1,1772,14
"925",19,25,0.501634851572326,1,2,1,1,0,-1,1853,13
"926",19,26,0.429304891076056,-1,1,1,0,1,-1,1932,12
"927",19,27,0.467251553492589,1,2,-1,0,0,-1,2069,11
"928",19,28,0.409529728354252,1,1,1,1,0,-1,1965,10
"929",19,29,0.298286836188318,-1,3,-1,1,0,1,1869,11
"930",19,30,0.141853005367975,-1,1,-1,1,1,-1,1976,10
"931",19,31,0.112637600333584,-1,2,1,0,0,1,2010,11
"932",19,32,0.100266295598338,-1,3,-1,1,0,1,1873,12
"933",19,33,0.179274290321401,-1,2,-1,1,0,1,1902,13
"934",19,34,0.157759435004676,-1,3,1,0,1,-1,1992,12
"935",19,35,0.116063626395984,-1,1,-1,1,0,1,1820,13
"936",19,36,0.116895011824291,1,3,-1,0,0,-1,1884,12
"937",19,37,0.201571246328485,1,2,-1,0,1,1,2186,13
"938",19,38,0.161444810999199,1,1,1,1,1,1,1960,14
"939",19,39,0.237405319291191,-1,2,1,0,0,1,1884,15
"940",19,40,0.443430624679634,-1,1,-1,1,1,-1,2015,14
"941",19,41,0.427067855084585,1,1,1,1,1,1,2180,15
"942",19,42,0.545019382376434,-1,2,-1,1,0,1,2134,16
"943",19,43,0.643333067399895,1,3,-1,0,0,-1,2006,15
"944",19,44,0.681512832649399,1,2,1,1,1,1,1920,16
"945",19,45,0.610752860693348,1,1,1,1,1,1,1862,17
"946",19,46,0.670560760360947,1,3,-1,0,0,-1,1890,16
"947",19,47,0.648317718697451,-1,1,-1,1,0,1,1977,17
"948",19,48,0.591177472092077,1,3,-1,0,0,-1,1997,16
"949",19,49,0.5767928123334,-1,2,1,0,0,1,1834,17
"950",19,50,0.683044795045503,1,3,-1,0,0,-1,1843,16
"951",19,51,0.690629606896107,1,1,1,1,1,1,1836,17
"952",19,52,0.71331606196873,-1,2,1,0,0,1,1854,18
"953",19,53,0.791433651135442,1,1,1,1,1,1,2070,19
"954",19,54,0.712220396145219,1,2,1,1,0,-1,1832,18
"955",19,55,0.65653027924809,1,3,-1,0,0,-1,1817,17
"956",19,56,0.684378542651595,1,2,-1,0,1,1,2210,18
"957",19,57,0.718588224781279,1,1,1,1,1,1,1844,19
"958",19,58,0.74517188169349,1,3,1,1,1,1,2021,20
"959",19,59,0.81181860533113,1,1,-1,0,0,-1,1877,19
"960",19,60,0.636131385730144,-1,3,1,0,1,-1,1867,18
"961",20,1,0.539441456226632,1,3,-1,0,1,1,5242,17
"962",20,2,0.480315348785153,-1,1,-1,1,0,1,2623,18
"963",20,3,0.436458295799745,-1,2,-1,1,1,-1,2336,17
"964",20,4,0.484478857703032,-1,1,-1,1,0,1,1887,18
"965",20,5,0.43840435731423,1,3,-1,0,1,1,2016,19
"966",20,6,0.25546489893817,-1,2,1,0,0,1,1864,20
"967",20,7,0.205855501850378,-1,3,1,0,1,-1,1913,19
"968",20,8,0.191615041727818,-1,2,-1,1,0,1,1991,20
"969",20,9,0.111938729174211,-1,1,-1,1,0,1,1791,21
"970",20,10,0.1990159106571,-1,2,-1,1,1,-1,1863,20
"971",20,11,0.128873677568605,-1,3,1,0,0,1,1832,21
"972",20,12,0.109408921282119,1,1,-1,0,0,-1,1823,20
"973",20,13,0.145959890525958,-1,3,-1,1,1,-1,2930,19
"974",20,14,0.169770793458741,-1,1,-1,1,0,1,1823,20
"975",20,15,0.232388960457005,-1,2,-1,1,0,1,1808,21
"976",20,16,0.385598418147628,-1,1,1,0,1,-1,1679,20
"977",20,17,0.451207436478845,1,3,-1,0,1,1,2248,21
"978",20,18,0.38709168479431,-1,2,1,0,0,1,1863,22
"979",20,19,0.489104204295444,-1,3,1,0,0,1,1850,23
"980",20,20,0.461504068865394,1,2,1,1,1,1,2035,24
"981",20,21,0.575735350126078,1,2,1,1,0,-1,1716,23
"982",20,22,0.57993666086656,-1,3,-1,1,1,-1,1639,22
"983",20,23,0.672911549913901,-1,1,1,0,1,-1,1616,21
"984",20,24,0.720206686878924,-1,3,1,0,1,-1,1833,20
"985",20,25,0.778296755214201,-1,2,1,0,1,-1,1821,19
"986",20,26,0.739962423433591,-1,1,-1,1,1,-1,1617,18
"987",20,27,0.580585618692553,-1,2,1,0,0,1,2411,19
"988",20,28,0.695047269494333,-1,1,-1,1,0,1,1981,20
"989",20,29,0.78938213844627,-1,3,1,0,0,1,1668,21
"990",20,30,0.666709641350823,1,1,1,1,1,1,2722,22
"991",20,31,0.497148209909565,-1,2,-1,1,1,-1,1832,21
"992",20,32,0.46301225267346,-1,3,1,0,0,1,1680,22
"993",20,33,0.3022257423777,-1,2,-1,1,0,1,1832,23
"994",20,34,0.248974002554297,-1,3,1,0,0,1,1617,24
"995",20,35,0.438929803280735,-1,1,1,0,1,-1,1521,23
"996",20,36,0.502824398036525,1,3,-1,0,0,-1,1575,22
"997",20,37,0.485243880049079,-1,2,1,0,1,-1,1722,21
"998",20,38,0.491717092805275,1,1,1,1,1,1,1751,22
"999",20,39,0.572150296284017,-1,2,1,0,1,-1,1543,21
"1000",20,40,0.618847583532281,1,1,1,1,1,1,1583,22
"1001",20,41,0.55462012500853,1,1,1,1,1,1,1599,23
"1002",20,42,0.625380375689359,1,2,-1,0,1,1,1576,24
"1003",20,43,0.678566839479221,-1,3,1,0,0,1,1984,25
"1004",20,44,0.777908277608767,-1,2,-1,1,1,-1,1663,24
"1005",20,45,0.680023402603585,1,1,1,1,0,-1,1929,23
"1006",20,46,0.663789171187693,-1,3,1,0,0,1,2031,24
"1007",20,47,0.609931626973491,-1,1,-1,1,0,1,1616,25
"1008",20,48,0.6177469815185,1,3,-1,0,1,1,1697,26
"1009",20,49,0.610078062640942,-1,2,1,0,1,-1,1977,25
"1010",20,50,0.582910164234754,1,3,1,1,0,-1,2136,24
"1011",20,51,0.611375563700333,-1,1,-1,1,0,1,1566,25
"1012",20,52,0.58575782896669,-1,2,-1,1,0,1,1632,26
"1013",20,53,0.573995315633067,1,1,1,1,1,1,1883,27
"1014",20,54,0.440335549373992,1,2,-1,0,1,1,1646,28
"1015",20,55,0.376566077553231,-1,3,-1,1,1,-1,1664,27
"1016",20,56,0.438066158333764,-1,2,1,0,1,-1,2153,26
"1017",20,57,0.460443535725704,1,1,1,1,1,1,1623,27
"1018",20,58,0.369637765317896,-1,3,-1,1,1,-1,1719,26
"1019",20,59,0.298746771127822,-1,1,1,0,1,-1,1574,25
"1020",20,60,0.339048260408163,-1,3,1,0,0,1,1537,26
"1021",22,1,0.412153790611774,1,3,1,1,1,1,2880,21
"1022",22,2,0.442711349433529,1,1,1,1,1,1,2096,22
"1023",22,3,0.344543539416545,-1,2,-1,1,1,-1,2131,21
"1024",22,4,0.281740251478804,-1,1,-1,1,0,1,1927,22
"1025",22,5,0.23024725154624,-1,3,1,0,0,1,1809,23
"1026",22,6,0.241555402362824,-1,2,1,0,1,-1,1749,22
"1027",22,7,0.114253684835635,-1,3,-1,1,1,-1,1752,21
"1028",22,8,0.179731951092587,-1,2,1,0,1,-1,1763,20
"1029",22,9,0.221887877365036,-1,1,1,0,1,-1,1772,19
"1030",22,10,0.193143739831263,-1,2,1,0,0,1,1835,20
"1031",22,11,0.294554754655607,1,3,1,1,0,-1,1770,19
"1032",22,12,0.289358516228707,1,1,-1,0,0,-1,2035,18
"1033",22,13,0.17025165566147,-1,3,1,0,1,-1,1954,17
"1034",22,14,0.171524944006962,-1,1,-1,1,0,1,1834,18
"1035",22,15,0.220990236784105,-1,2,1,0,0,1,1783,19
"1036",22,16,0.422189843700224,-1,1,-1,1,0,1,1909,20
"1037",22,17,0.520186753713764,1,3,1,1,1,1,1756,21
"1038",22,18,0.620284695020607,-1,2,1,0,1,-1,1733,20
"1039",22,19,0.540451215352898,1,3,-1,0,0,-1,1567,19
"1040",22,20,0.606621808985978,-1,2,-1,1,1,-1,1982,18
"1041",22,21,0.643408957817905,-1,2,-1,1,0,1,1926,19
"1042",22,22,0.678762812898045,1,3,-1,0,0,-1,1769,18
"1043",22,23,0.614830760080209,-1,1,-1,1,0,1,1782,19
"1044",22,24,0.498237383365429,1,3,-1,0,1,1,1774,20
"1045",22,25,0.523785541562422,-1,2,-1,1,0,1,1778,21
"1046",22,26,0.567534575530562,1,1,1,1,0,-1,1790,20
"1047",22,27,0.639117290385258,-1,2,-1,1,0,1,1818,21
"1048",22,28,0.617449823808454,-1,1,-1,1,0,1,1818,22
"1049",22,29,0.605002116397415,1,3,-1,0,1,1,1790,23
"1050",22,30,0.616368105111654,1,1,1,1,1,1,1797,24
"1051",22,31,0.603368718013432,-1,2,1,0,1,-1,1615,23
"1052",22,32,0.717929392847978,-1,3,-1,1,0,1,1718,24
"1053",22,33,0.672844407725046,1,2,-1,0,0,-1,1730,23
"1054",22,34,0.727395472078743,1,3,-1,0,1,1,1792,24
"1055",22,35,0.695975145811417,-1,1,1,0,1,-1,1738,23
"1056",22,36,0.719396034702247,-1,3,1,0,1,-1,1740,22
"1057",22,37,0.775800737928488,1,2,1,1,1,1,1747,23
"1058",22,38,0.747191497582974,1,1,1,1,0,-1,1746,22
"1059",22,39,0.826936822204311,-1,2,-1,1,0,1,1788,23
"1060",22,40,0.82030901957923,1,1,1,1,1,1,1773,24
"1061",22,41,0.802864469840218,1,1,1,1,1,1,1811,25
"1062",22,42,0.827956183231309,1,2,-1,0,0,-1,1756,24
"1063",22,43,0.868539502941135,1,3,-1,0,0,-1,1764,23
"1064",22,44,0.889495636661735,1,2,1,1,1,1,2107,24
"1065",22,45,0.685171728416373,1,1,-1,0,0,-1,1720,23
"1066",22,46,0.701654748239245,1,3,-1,0,0,-1,1755,22
"1067",22,47,0.519972411382089,1,1,1,1,1,1,1753,23
"1068",22,48,0.472525285991108,1,3,-1,0,1,1,1731,24
"1069",22,49,0.40908416904951,1,2,-1,0,1,1,1767,25
"1070",22,50,0.416273104339426,-1,3,1,0,1,-1,1744,24
"1071",22,51,0.338464549084492,-1,1,1,0,0,1,1750,25
"1072",22,52,0.262554574202413,-1,2,-1,1,0,1,1752,26
"1073",22,53,0.33046082864092,-1,1,-1,1,0,1,1770,27
"1074",22,54,0.304654894026736,1,2,1,1,0,-1,1751,26
"1075",22,55,0.265876108461145,-1,3,1,0,1,-1,1762,25
"1076",22,56,0.32077796584777,1,2,-1,0,0,-1,1885,24
"1077",22,57,0.285291439434939,-1,1,-1,1,1,-1,1739,23
"1078",22,58,0.170307335391209,-1,3,1,0,0,1,1731,24
"1079",22,59,0.248401743488064,-1,1,-1,1,0,1,1748,25
"1080",22,60,0.206764072044913,1,3,-1,0,1,1,1737,26
"1081",23,1,0.524217276294941,1,1,-1,0,0,-1,1579,10
"1082",23,2,0.441584876066548,-1,2,1,0,1,-1,2728,9
"1083",23,3,0.49206929980115,1,3,-1,0,0,-1,4490,8
"1084",23,4,0.459991368777503,1,2,1,1,0,-1,2408,7
"1085",23,5,0.545284205186015,1,1,1,1,1,1,1846,8
"1086",23,6,0.543253341555395,-1,3,1,0,0,1,1846,9
"1087",23,7,0.567106769879496,-1,1,-1,1,1,-1,1944,8
"1088",23,8,0.601330690613118,1,3,-1,0,1,1,2200,9
"1089",23,9,0.623382254919885,1,2,1,1,0,-1,2943,8
"1090",23,10,0.63118844860316,1,3,1,1,0,-1,2129,7
"1091",23,11,0.694177171222337,-1,1,1,0,1,-1,1909,6
"1092",23,12,0.796624528236574,1,2,-1,0,1,1,1944,7
"1093",23,13,0.889778069831406,1,1,1,1,1,1,2372,8
"1094",23,14,0.846079657269219,1,2,-1,0,0,-1,1913,7
"1095",23,15,0.632383198533963,1,3,-1,0,0,-1,1906,6
"1096",23,16,0.696514221882687,1,2,1,1,1,1,1893,7
"1097",23,17,0.6896344579206,1,1,-1,0,0,-1,1919,6
"1098",23,18,0.729125673568569,1,3,-1,0,0,-1,1879,5
"1099",23,19,0.686965693013843,-1,1,-1,1,1,-1,1824,4
"1100",23,20,0.657368100907998,-1,3,1,0,1,-1,1918,3
"1101",23,21,0.660807235379425,1,3,-1,0,1,1,2192,4
"1102",23,22,0.694008150700117,1,1,-1,0,1,1,2115,5
"1103",23,23,0.713169127589573,-1,2,1,0,0,1,1869,6
"1104",23,24,0.748692829646035,-1,1,1,0,0,1,1887,7
"1105",23,25,0.74741387592018,1,3,1,1,1,1,2467,8
"1106",23,26,0.578767033523878,-1,2,1,0,1,-1,1901,7
"1107",23,27,0.599865171543027,1,3,-1,0,1,1,2079,8
"1108",23,28,0.489737081182843,1,2,-1,0,1,1,1930,9
"1109",23,29,0.415188115976634,-1,1,-1,1,1,-1,1874,8
"1110",23,30,0.394799040100902,-1,2,-1,1,1,-1,1925,7
"1111",23,31,0.300605743788288,-1,3,1,0,0,1,3871,8
"1112",23,32,0.443716348470749,1,1,1,1,1,1,2040,9
"1113",23,33,0.412850507159113,-1,3,-1,1,0,1,2030,10
"1114",23,34,0.486916160504782,-1,1,-1,1,1,-1,2480,9
"1115",23,35,0.515487285880987,1,2,1,1,1,1,1942,10
"1116",23,36,0.409793072792875,1,1,1,1,0,-1,1824,9
"1117",23,37,0.394490423075974,-1,3,-1,1,0,1,2180,10
"1118",23,38,0.421983066473926,1,2,1,1,1,1,1976,11
"1119",23,39,0.359694263355558,-1,3,1,0,0,1,3903,12
"1120",23,40,0.348229809629139,-1,2,-1,1,0,1,1798,13
"1121",23,41,0.342156277522089,1,2,1,1,1,1,1533,14
"1122",23,42,0.258857449738317,1,3,-1,0,1,1,2132,15
"1123",23,43,0.329117578027433,-1,1,-1,1,1,-1,1883,14
"1124",23,44,0.406248201338603,-1,3,1,0,0,1,2003,15
"1125",23,45,0.482342726791002,1,2,1,1,1,1,1835,16
"1126",23,46,0.349815283640856,-1,1,-1,1,0,1,1829,17
"1127",23,47,0.376124813707443,1,2,-1,0,0,-1,1880,16
"1128",23,48,0.317887125042219,1,1,1,1,1,1,1805,17
"1129",23,49,0.17040434744754,-1,3,-1,1,1,-1,1645,16
"1130",23,50,0.196980453285712,1,1,1,1,0,-1,1786,15
"1131",23,51,0.220925589840101,-1,2,1,0,0,1,1839,16
"1132",23,52,0.168215683654108,-1,3,1,0,0,1,1823,17
"1133",23,53,0.294281013483466,-1,2,1,0,1,-1,1838,16
"1134",23,54,0.229330680155376,-1,3,1,0,1,-1,1837,15
"1135",23,55,0.295811189671705,-1,1,-1,1,0,1,1949,16
"1136",23,56,0.220737988710237,-1,3,1,0,0,1,1833,17
"1137",23,57,0.217820118218415,1,2,1,1,1,1,1920,18
"1138",23,58,0.198739838808338,-1,1,-1,1,0,1,1850,19
"1139",23,59,0.320539032567171,-1,2,1,0,1,-1,1835,18
"1140",23,60,0.357361410388694,-1,1,-1,1,1,-1,2167,17
"1141",24,1,0.556221531052142,-1,2,1,0,0,1,2823,22
"1142",24,2,0.427139602441229,-1,3,1,0,0,1,4406,23
"1143",24,3,0.487041997278162,-1,1,1,0,1,-1,1544,22
"1144",24,4,0.536154835463693,1,3,-1,0,1,1,2824,23
"1145",24,5,0.53904607786971,-1,2,-1,1,1,-1,2183,22
"1146",24,6,0.535697405625941,-1,1,-1,1,0,1,3471,23
"1147",24,7,0.61116885754083,1,2,-1,0,1,1,3266,24
"1148",24,8,0.68330346263707,1,1,1,1,1,1,2026,25
"1149",24,9,0.613365520907949,1,3,-1,0,1,1,2613,26
"1150",24,10,0.563611893810995,-1,1,1,0,1,-1,2023,25
"1151",24,11,0.558102243694416,-1,2,-1,1,1,-1,2851,24
"1152",24,12,0.562355584454883,1,3,-1,0,1,1,1842,25
"1153",24,13,0.423187168667807,1,2,-1,0,1,1,3311,26
"1154",24,14,0.313312171594887,-1,3,1,0,0,1,1866,27
"1155",24,15,0.217464806757617,1,1,1,1,1,1,3034,28
"1156",24,16,0.125041741836765,-1,3,1,0,0,1,3070,29
"1157",24,17,0.172192210496547,1,2,-1,0,1,1,2277,30
"1158",24,18,0.281348748436211,-1,1,-1,1,0,1,1910,31
"1159",24,19,0.315167145190039,-1,2,1,0,0,1,1918,32
"1160",24,20,0.368134269459918,-1,1,-1,1,0,1,3125,33
"1161",24,21,0.2451940986794,1,3,-1,0,1,1,1888,34
"1162",24,22,0.287674851343529,-1,1,1,0,1,-1,2740,33
"1163",24,23,0.307898162901469,1,2,1,1,0,-1,1885,32
"1164",24,24,0.269734860475325,-1,1,-1,1,0,1,1901,33
"1165",24,25,0.218086680765717,-1,3,1,0,0,1,2860,34
"1166",24,26,0.308243264483321,-1,2,-1,1,1,-1,1788,33
"1167",24,27,0.339282076130556,-1,3,-1,1,1,-1,1974,32
"1168",24,28,0.33740272609199,-1,2,1,0,0,1,2173,33
"1169",24,29,0.267689836863546,1,1,1,1,1,1,2030,34
"1170",24,30,0.252569720209704,1,2,-1,0,1,1,1983,35
"1171",24,31,0.289679688843018,1,3,1,1,0,-1,2046,34
"1172",24,32,0.336887301304821,-1,1,1,0,0,1,2188,35
"1173",24,33,0.381355974511991,-1,3,1,0,0,1,2121,36
"1174",24,34,0.517952606339111,1,1,-1,0,0,-1,1994,35
"1175",24,35,0.432968878376447,1,2,1,1,0,-1,2592,34
"1176",24,36,0.586142450347507,1,1,1,1,1,1,1908,35
"1177",24,37,0.552251277960984,-1,3,1,0,0,1,1686,36
"1178",24,38,0.588148382127751,-1,2,-1,1,1,-1,2285,35
"1179",24,39,0.691675229582364,1,3,1,1,0,-1,1872,34
"1180",24,40,0.786577662630018,1,2,1,1,0,-1,2237,33
"1181",24,41,0.775422157558837,-1,1,-1,1,0,1,3532,34
"1182",24,42,0.856731996667473,-1,2,-1,1,1,-1,4038,33
"1183",24,43,0.889850085855013,1,3,-1,0,1,1,2170,34
"1184",24,44,0.846053861099559,1,2,-1,0,1,1,2190,35
"1185",24,45,0.839372280677374,1,1,1,1,1,1,3014,36
"1186",24,46,0.8728999496265,1,3,-1,0,1,1,1950,37
"1187",24,47,0.75722882209316,1,1,1,1,1,1,1542,38
"1188",24,48,0.715467717130775,1,3,-1,0,1,1,2627,39
"1189",24,49,0.6043979908297,-1,2,1,0,0,1,2119,40
"1190",24,50,0.577243740210555,1,3,1,1,0,-1,1838,39
"1191",24,51,0.561449664429487,1,1,1,1,1,1,1984,40
"1192",24,52,0.61175739125478,-1,2,1,0,1,-1,2093,39
"1193",24,53,0.630466262014476,-1,1,-1,1,0,1,2857,40
"1194",24,54,0.442164428517957,-1,2,-1,1,1,-1,3291,39
"1195",24,55,0.41469396285013,-1,3,1,0,0,1,1874,40
"1196",24,56,0.35330788237706,-1,2,-1,1,1,-1,1916,39
"1197",24,57,0.246432089773597,-1,1,-1,1,0,1,2485,40
"1198",24,58,0.380338273757238,1,3,1,1,0,-1,2033,39
"1199",24,59,0.546798103362392,1,1,1,1,1,1,2500,40
"1200",24,60,0.513389660938969,-1,3,1,0,1,-1,2792,39
"1201",25,1,0.524348837742582,-1,3,1,0,0,1,3330,21
"1202",25,2,0.5918389498715,1,1,1,1,1,1,2531,22
"1203",25,3,0.657516168640915,-1,2,-1,1,1,-1,3333,21
"1204",25,4,0.70819007048284,-1,1,-1,1,0,1,2353,22
"1205",25,5,0.736110907190197,1,3,1,1,0,-1,1558,21
"1206",25,6,0.766821741138153,1,2,1,1,0,-1,2302,20
"1207",25,7,0.556478049065979,-1,3,1,0,1,-1,2215,19
"1208",25,8,0.527364429720202,-1,2,-1,1,0,1,2575,20
"1209",25,9,0.469696638395325,1,1,1,1,0,-1,2094,19
"1210",25,10,0.456464297650196,1,2,-1,0,0,-1,2118,18
"1211",25,11,0.415251777710139,-1,3,1,0,1,-1,2218,17
"1212",25,12,0.275320001594573,1,1,1,1,1,1,2184,18
"1213",25,13,0.239385881518215,-1,3,-1,1,1,-1,2149,17
"1214",25,14,0.360084431697619,-1,1,-1,1,0,1,2585,18
"1215",25,15,0.38407708408523,-1,2,1,0,1,-1,1972,17
"1216",25,16,0.482990482169849,-1,1,1,0,1,-1,2165,16
"1217",25,17,0.56867585046413,1,3,-1,0,0,-1,2216,15
"1218",25,18,0.553460236148182,-1,2,-1,1,0,1,2448,16
"1219",25,19,0.584995998712162,-1,3,1,0,0,1,2054,17
"1220",25,20,0.542235604322975,1,2,-1,0,0,-1,2065,16
"1221",25,21,0.489135092317379,-1,1,-1,1,0,1,2132,17
"1222",25,22,0.417432887620335,1,2,-1,0,1,1,2215,18
"1223",25,23,0.418406940332069,-1,3,1,0,0,1,2009,19
"1224",25,24,0.509901597185369,-1,2,-1,1,1,-1,2513,18
"1225",25,25,0.612231797957521,-1,1,1,0,1,-1,2018,17
"1226",25,26,0.546946330543875,1,3,1,1,0,-1,1859,16
"1227",25,27,0.606400033544861,-1,1,1,0,1,-1,1938,15
"1228",25,28,0.63096092963859,1,3,1,1,0,-1,1891,14
"1229",25,29,0.658494553423971,1,2,1,1,1,1,1972,15
"1230",25,30,0.628471510911431,-1,3,1,0,1,-1,2099,14
"1231",25,31,0.593393838085589,-1,1,-1,1,0,1,2430,15
"1232",25,32,0.578394547576712,-1,2,1,0,0,1,2376,16
"1233",25,33,0.735674714204555,-1,1,-1,1,0,1,2075,17
"1234",25,34,0.663993427272008,-1,2,1,0,0,1,2079,18
"1235",25,35,0.732595282230193,1,3,-1,0,1,1,2569,19
"1236",25,36,0.829797338055026,1,2,1,1,0,-1,2686,18
"1237",25,37,0.805615628254112,1,1,1,1,1,1,1931,19
"1238",25,38,0.770564087287319,1,3,-1,0,1,1,2081,20
"1239",25,39,0.735284914581979,1,1,1,1,1,1,1974,21
"1240",25,40,0.72336780273966,1,3,-1,0,1,1,2185,22
"1241",25,41,0.762016434470493,1,2,1,1,1,1,2179,23
"1242",25,42,0.845878557586373,1,3,-1,0,1,1,2083,24
"1243",25,43,0.517724406166151,1,1,-1,0,0,-1,2337,23
"1244",25,44,0.542844813108211,1,3,-1,0,1,1,2102,24
"1245",25,45,0.601714923784939,1,2,-1,0,1,1,2200,25
"1246",25,46,0.613452392999653,-1,1,-1,1,0,1,2414,26
"1247",25,47,0.533103247553077,-1,2,1,0,0,1,2316,27
"1248",25,48,0.539675018565344,1,1,-1,0,0,-1,2022,26
"1249",25,49,0.510344967629372,1,3,-1,0,1,1,2080,27
"1250",25,50,0.298586438668297,-1,1,-1,1,0,1,2221,28
"1251",25,51,0.210035293983625,-1,2,1,0,0,1,2013,29
"1252",25,52,0.255228165505894,-1,3,-1,1,1,-1,2101,28
"1253",25,53,0.359550704994609,1,2,1,1,0,-1,2075,27
"1254",25,54,0.434098913329269,-1,3,1,0,0,1,1932,28
"1255",25,55,0.397233437022454,1,1,1,1,1,1,2076,29
"1256",25,56,0.462378919183394,1,3,-1,0,1,1,1958,30
"1257",25,57,0.437652320687317,-1,2,1,0,1,-1,2042,29
"1258",25,58,0.354198860777342,-1,1,-1,1,0,1,1921,30
"1259",25,59,0.25579960558155,-1,2,-1,1,0,1,1974,31
"1260",25,60,0.195503993759402,-1,1,-1,1,0,1,1869,32
"1261",26,1,0.402935900678858,1,3,1,1,1,1,2304,1
"1262",26,2,0.496415980028469,1,1,1,1,1,1,1937,2
"1263",26,3,0.43784461584753,-1,2,1,0,1,-1,1870,1
"1264",26,4,0.443899766711888,1,1,1,1,1,1,1791,2
"1265",26,5,0.362893799664593,-1,3,1,0,1,-1,1791,1
"1266",26,6,0.233320170935711,-1,2,1,0,1,-1,1831,0
"1267",26,7,0.147405977194077,-1,3,1,0,1,-1,1784,-1
"1268",26,8,0.14286354433768,-1,2,-1,1,1,-1,1872,-2
"1269",26,9,0.18279413092735,1,1,1,1,1,1,1888,-1
"1270",26,10,0.292657504924592,1,2,1,1,1,1,2511,0
"1271",26,11,0.28325179984386,1,3,-1,0,1,1,1880,1
"1272",26,12,0.234152259935192,-1,1,-1,1,0,1,1847,2
"1273",26,13,0.248239730673888,1,3,-1,0,1,1,1768,3
"1274",26,14,0.207554066458862,-1,1,-1,1,0,1,1784,4
"1275",26,15,0.237040658521295,-1,2,-1,1,0,1,2040,5
"1276",26,16,0.264251979988078,-1,1,1,0,1,-1,1758,4
"1277",26,17,0.363748145705871,-1,3,1,0,0,1,1800,5
"1278",26,18,0.313647308630669,-1,2,1,0,0,1,2152,6
"1279",26,19,0.303051986037394,1,3,-1,0,1,1,1784,7
"1280",26,20,0.360761471464883,-1,2,1,0,0,1,2032,8
"1281",26,21,0.385634358322179,1,1,1,1,1,1,2248,9
"1282",26,22,0.492915425703539,1,2,-1,0,1,1,1935,10
"1283",26,23,0.501635074871721,1,3,-1,0,1,1,1722,11
"1284",26,24,0.427669248001775,1,2,1,1,0,-1,1782,10
"1285",26,25,0.492924062382941,1,1,-1,0,1,1,2080,11
"1286",26,26,0.357444071705332,-1,3,1,0,0,1,1808,12
"1287",26,27,0.489791948231827,1,1,-1,0,0,-1,1783,11
"1288",26,28,0.512708444865451,1,3,-1,0,1,1,2151,12
"1289",26,29,0.483117201392199,1,2,1,1,1,1,2183,13
"1290",26,30,0.568139929143538,1,3,-1,0,0,-1,1810,12
"1291",26,31,0.601735872759448,-1,1,-1,1,0,1,2366,13
"1292",26,32,0.66366801240959,1,2,1,1,0,-1,1801,12
"1293",26,33,0.642321372002304,1,1,1,1,1,1,1783,13
"1294",26,34,0.531527351010871,1,2,-1,0,0,-1,1824,12
"1295",26,35,0.415138658805304,1,3,-1,0,1,1,1832,13
"1296",26,36,0.366590497356853,-1,2,1,0,1,-1,2568,12
"1297",26,37,0.339985738222924,1,1,1,1,1,1,1801,13
"1298",26,38,0.400088174759715,1,3,1,1,0,-1,1855,12
"1299",26,39,0.42711018454852,-1,1,1,0,1,-1,1760,11
"1300",26,40,0.414998615274692,1,3,-1,0,1,1,1832,12
"1301",26,41,0.455235055123484,-1,2,-1,1,1,-1,1784,11
"1302",26,42,0.549260073306878,-1,3,-1,1,0,1,1792,12
"1303",26,43,0.587083230856435,1,1,1,1,1,1,1848,13
"1304",26,44,0.562391224620659,1,3,-1,0,0,-1,1896,12
"1305",26,45,0.592897473239861,1,2,1,1,0,-1,1895,11
"1306",26,46,0.511464726113572,1,1,1,1,0,-1,1807,10
"1307",26,47,0.550433586706213,1,2,-1,0,0,-1,1873,9
"1308",26,48,0.57256899641423,1,1,1,1,1,1,1782,10
"1309",26,49,0.571156924491487,1,3,-1,0,0,-1,1815,9
"1310",26,50,0.603346058257657,1,1,1,1,1,1,1959,10
"1311",26,51,0.625625522946266,1,2,1,1,1,1,1801,11
"1312",26,52,0.597759913521821,1,3,1,1,1,1,1847,12
"1313",26,53,0.720476242287915,1,2,1,1,1,1,1864,13
"1314",26,54,0.697326597318114,1,3,-1,0,0,-1,1952,12
"1315",26,55,0.795787265018069,1,1,-1,0,0,-1,1864,11
"1316",26,56,0.853082468512911,1,3,1,1,1,1,1815,12
"1317",26,57,0.846285606473889,1,2,-1,0,0,-1,1873,11
"1318",26,58,0.889480099981503,1,1,1,1,1,1,1880,12
"1319",26,59,0.86849429281294,1,2,-1,0,0,-1,1834,11
"1320",26,60,0.852486624888727,1,1,1,1,0,-1,2512,10
"1321",28,1,0.455019287211808,-1,2,-1,1,0,1,2153,15
"1322",28,2,0.439278679451269,-1,3,1,0,0,1,2107,16
"1323",28,3,0.470349736127542,1,1,1,1,1,1,2185,17
"1324",28,4,0.467281896180175,-1,3,-1,1,0,1,2897,18
"1325",28,5,0.364385607998916,-1,2,1,0,1,-1,2055,17
"1326",28,6,0.412597398202497,-1,1,1,0,1,-1,4582,16
"1327",28,7,0.546262279169615,1,2,1,1,0,-1,1649,15
"1328",28,8,0.483616021172869,-1,1,-1,1,1,-1,3732,14
"1329",28,9,0.518159539395778,1,3,-1,0,1,1,1826,15
"1330",28,10,0.57287823592445,1,1,-1,0,1,1,2191,16
"1331",28,11,0.487352599098378,-1,2,-1,1,1,-1,2028,15
"1332",28,12,0.566871623450982,1,3,1,1,0,-1,4461,14
"1333",28,13,0.60790754409269,1,2,1,1,1,1,1982,15
"1334",28,14,0.726152183710239,1,3,-1,0,1,1,2572,16
"1335",28,15,0.740113511210009,-1,1,1,0,1,-1,1893,15
"1336",28,16,0.720041605227584,1,3,1,1,1,1,2092,16
"1337",28,17,0.774718401572993,1,2,1,1,1,1,1885,17
"1338",28,18,0.826635764058485,1,1,1,1,0,-1,2054,16
"1339",28,19,0.836332611826308,1,2,-1,0,0,-1,1669,15
"1340",28,20,0.810585655375702,1,1,1,1,0,-1,1827,14
"1341",28,21,0.660312937452009,1,3,-1,0,0,-1,2309,13
"1342",28,22,0.669876734085442,1,1,1,1,1,1,1614,14
"1343",28,23,0.548393985771818,-1,2,1,0,1,-1,1931,13
"1344",28,24,0.521243451879209,1,1,-1,0,0,-1,1834,12
"1345",28,25,0.525925906470499,-1,3,1,0,1,-1,1843,11
"1346",28,26,0.64197828168312,1,2,1,1,1,1,3591,12
"1347",28,27,0.648336921579259,1,3,1,1,1,1,4342,13
"1348",28,28,0.634466643932547,-1,2,-1,1,0,1,2218,14
"1349",28,29,0.612138380997395,1,1,1,1,0,-1,2233,13
"1350",28,30,0.652112141087234,1,2,-1,0,1,1,1974,14
"1351",28,31,0.635670660960901,1,3,-1,0,1,1,1535,15
"1352",28,32,0.742094569685438,1,1,1,1,0,-1,2537,14
"1353",28,33,0.844063757751672,1,3,-1,0,1,1,1926,15
"1354",28,34,0.751981647849833,-1,1,-1,1,1,-1,2001,14
"1355",28,35,0.862804686422932,1,2,-1,0,0,-1,1930,13
"1356",28,36,0.70081125671158,1,1,1,1,1,1,4593,14
"1357",28,37,0.540858668104191,-1,3,1,0,1,-1,3986,13
"1358",28,38,0.510582674631919,-1,2,-1,1,1,-1,1944,12
"1359",28,39,0.593210168553469,-1,3,1,0,1,-1,1857,11
"1360",28,40,0.457177738669792,-1,2,1,0,0,1,1676,12
"1361",28,41,0.486328722888925,1,1,1,1,1,1,1835,13
"1362",28,42,0.44642529955557,-1,2,1,0,1,-1,1890,12
"1363",28,43,0.422960862820544,-1,3,1,0,0,1,1969,13
"1364",28,44,0.329127066530186,-1,2,-1,1,0,1,1821,14
"1365",28,45,0.367344818277303,-1,1,-1,1,1,-1,1651,13
"1366",28,46,0.410977261433383,-1,3,1,0,1,-1,2026,12
"1367",28,47,0.36044799181079,-1,1,-1,1,1,-1,1897,11
"1368",28,48,0.287309422313184,-1,3,-1,1,0,1,1851,12
"1369",28,49,0.21867432516737,-1,2,1,0,1,-1,3295,11
"1370",28,50,0.256837807962657,1,3,-1,0,1,1,1961,12
"1371",28,51,0.289178351264944,1,1,-1,0,0,-1,2157,11
"1372",28,52,0.287559276907862,1,2,1,1,1,1,1955,12
"1373",28,53,0.241561514623385,1,1,1,1,1,1,2005,13
"1374",28,54,0.197225359231558,-1,2,1,0,1,-1,1652,12
"1375",28,55,0.136848585259585,1,3,-1,0,0,-1,1871,11
"1376",28,56,0.111486402582301,-1,2,1,0,1,-1,2018,10
"1377",28,57,0.101533544340643,-1,1,-1,1,1,-1,2053,9
"1378",28,58,0.115829157947814,-1,3,1,0,1,-1,4722,8
"1379",28,59,0.144664852465595,-1,1,-1,1,1,-1,2225,7
"1380",28,60,0.174513131613155,1,3,-1,0,0,-1,2057,6
"1381",29,1,0.436322684831848,1,2,1,1,1,1,3772,18
"1382",29,2,0.449692973040773,1,3,-1,0,1,1,1774,19
"1383",29,3,0.530403243801728,1,1,1,1,1,1,3460,20
"1384",29,4,0.605164939402611,1,3,-1,0,1,1,2538,21
"1385",29,5,0.606637853470824,1,2,-1,0,1,1,1699,22
"1386",29,6,0.597740839540335,1,1,-1,0,0,-1,2142,21
"1387",29,7,0.524606434311078,-1,2,-1,1,1,-1,4875,20
"1388",29,8,0.509078730958924,-1,1,-1,1,0,1,2822,21
"1389",29,9,0.476772943875142,-1,3,1,0,1,-1,2560,20
"1390",29,10,0.462153868897978,1,1,1,1,1,1,1584,21
"1391",29,11,0.534183170798986,1,2,1,1,1,1,1943,22
"1392",29,12,0.519590519486633,1,3,1,1,1,1,2672,23
"1393",29,13,0.541580778554103,NA,2,NA,NA,NA,NA,NA,23
"1394",29,14,0.488358881507894,-1,3,1,0,1,-1,2260,22
"1395",29,15,0.531789319255061,1,1,-1,0,0,-1,1954,21
"1396",29,16,0.59091593374163,-1,3,-1,1,1,-1,1690,20
"1397",29,17,0.546960203588178,1,2,1,1,0,-1,1631,19
"1398",29,18,0.540876384269317,1,1,1,1,1,1,4244,20
"1399",29,19,0.496277515460176,1,2,1,1,1,1,1838,21
"1400",29,20,0.446374581231278,-1,1,-1,1,0,1,2117,22
"1401",29,21,0.411710990904508,-1,1,1,0,1,-1,1743,21
"1402",29,22,0.403463179330704,-1,2,1,0,0,1,3543,22
"1403",29,23,0.464491743142747,1,3,1,1,0,-1,1851,21
"1404",29,24,0.52709716865358,-1,2,1,0,1,-1,1948,20
"1405",29,25,0.443439289576643,-1,1,-1,1,1,-1,2143,19
"1406",29,26,0.453562579751308,1,3,-1,0,0,-1,2152,18
"1407",29,27,0.539208427361701,1,1,1,1,1,1,1795,19
"1408",29,28,0.570016416126058,-1,3,-1,1,1,-1,1705,18
"1409",29,29,0.586515471950877,1,2,-1,0,0,-1,2039,17
"1410",29,30,0.555239382270066,-1,3,1,0,1,-1,1723,16
"1411",29,31,0.588823287367024,1,1,1,1,1,1,1653,17
"1412",29,32,0.474365875400164,-1,2,-1,1,1,-1,1602,16
"1413",29,33,0.300573513849994,-1,1,-1,1,0,1,1811,17
"1414",29,34,0.185319255321014,-1,2,-1,1,0,1,1990,18
"1415",29,35,0.201694629968223,-1,3,1,0,0,1,2082,19
"1416",29,36,0.231007811375803,1,2,1,1,1,1,1958,20
"1417",29,37,0.185821976639282,-1,1,-1,1,1,-1,2001,19
"1418",29,38,0.14089019220943,-1,3,1,0,0,1,1828,20
"1419",29,39,0.143969455453935,NA,1,NA,NA,NA,NA,NA,20
"1420",29,40,0.222661287322982,-1,3,1,0,0,1,2765,21
"1421",29,41,0.245798250444678,-1,3,1,0,1,-1,3564,20
"1422",29,42,0.248913231539641,-1,1,-1,1,0,1,2099,21
"1423",29,43,0.260411060520869,1,2,-1,0,0,-1,1702,20
"1424",29,44,0.18146299964546,-1,1,-1,1,0,1,1952,21
"1425",29,45,0.256001557142361,-1,3,1,0,1,-1,3559,20
"1426",29,46,0.324992210378504,1,2,1,1,1,1,2020,21
"1427",29,47,0.36383524134634,1,3,-1,0,1,1,1902,22
"1428",29,48,0.34446994519149,-1,2,-1,1,1,-1,1769,21
"1429",29,49,0.340911471633988,-1,1,-1,1,0,1,1749,22
"1430",29,50,0.380620370000664,-1,2,1,0,0,1,1702,23
"1431",29,51,0.416820690005699,-1,3,-1,1,1,-1,1571,22
"1432",29,52,0.5738387424638,1,1,-1,0,1,1,1792,23
"1433",29,53,0.604517801217266,-1,3,1,0,0,1,1607,24
"1434",29,54,0.612780337133918,1,1,1,1,1,1,1619,25
"1435",29,55,0.720730137316232,1,2,-1,0,1,1,1716,26
"1436",29,56,0.767829818908865,-1,1,-1,1,1,-1,2993,25
"1437",29,57,0.751289743834361,1,3,-1,0,1,1,1891,26
"1438",29,58,0.86033789935432,-1,2,1,0,1,-1,1992,25
"1439",29,59,0.875189477340565,1,3,-1,0,1,1,1906,26
"1440",29,60,0.814186911603989,1,2,-1,0,0,-1,1983,25
"1441",30,1,0.454815259156749,1,3,-1,0,0,-1,2876,9
"1442",30,2,0.425990546242293,-1,1,1,0,1,-1,2032,8
"1443",30,3,0.450168378312521,-1,2,-1,1,1,-1,2051,7
"1444",30,4,0.342575140484685,-1,1,1,0,1,-1,1952,6
"1445",30,5,0.290011935986498,1,3,-1,0,0,-1,2229,5
"1446",30,6,0.371119471087414,1,2,1,1,1,1,1941,6
"1447",30,7,0.497319089579792,-1,3,-1,1,1,-1,2597,5
"1448",30,8,0.478227338360589,1,2,1,1,0,-1,3266,4
"1449",30,9,0.423678727216759,-1,1,-1,1,0,1,2392,5
"1450",30,10,0.282579138012896,-1,2,-1,1,1,-1,1889,4
"1451",30,11,0.306174302791244,-1,3,1,0,0,1,2455,5
"1452",30,12,0.307806288599462,-1,1,-1,1,0,1,1813,6
"1453",30,13,0.18670575824714,-1,3,1,0,1,-1,1885,5
"1454",30,14,0.264036969106179,-1,1,-1,1,0,1,2345,6
"1455",30,15,0.310350375078314,1,2,-1,0,0,-1,2276,5
"1456",30,16,0.278126970420468,-1,1,-1,1,1,-1,2180,4
"1457",30,17,0.308014672753602,-1,3,1,0,1,-1,2081,3
"1458",30,18,0.25421992784465,-1,2,1,0,0,1,2174,4
"1459",30,19,0.205643996343322,-1,3,1,0,1,-1,2218,3
"1460",30,20,0.292931289615353,1,2,-1,0,0,-1,2220,2
"1461",30,21,0.209952581155125,-1,1,-1,1,0,1,1887,3
"1462",30,22,0.20293408910832,-1,2,-1,1,1,-1,2517,2
"1463",30,23,0.320831716860929,1,3,-1,0,0,-1,2313,1
"1464",30,24,0.405455543262638,1,2,-1,0,1,1,2090,2
"1465",30,25,0.477300573353193,1,1,1,1,1,1,1817,3
"1466",30,26,0.532981941714214,NA,3,NA,NA,NA,NA,NA,3
"1467",30,27,0.567790448427255,1,1,1,1,0,-1,2417,2
"1468",30,28,0.415637654166264,1,3,-1,0,0,-1,1782,1
"1469",30,29,0.425697147785805,-1,2,1,0,1,-1,2267,0
"1470",30,30,0.374071281702003,1,3,1,1,1,1,2020,1
"1471",30,31,0.357096540795298,1,1,1,1,1,1,1808,2
"1472",30,32,0.485229197192413,1,2,-1,0,1,1,2817,3
"1473",30,33,0.661256186431798,1,1,-1,0,0,-1,1959,2
"1474",30,34,0.791572368245565,1,2,1,1,0,-1,2528,1
"1475",30,35,0.844494405984234,-1,3,1,0,1,-1,1887,0
"1476",30,36,0.77294943546735,-1,2,1,0,1,-1,2001,-1
"1477",30,37,0.669575886992242,1,1,1,1,1,1,1787,0
"1478",30,38,0.775874281989128,1,3,-1,0,1,1,2264,1
"1479",30,39,0.771991056450145,1,1,1,1,1,1,1809,2
"1480",30,40,0.789653805666773,1,3,-1,0,0,-1,2257,1
"1481",30,41,0.69939186970707,1,2,-1,0,0,-1,1697,0
"1482",30,42,0.651279613860826,-1,3,1,0,1,-1,2027,-1
"1483",30,43,0.597428205367941,1,1,1,1,0,-1,2133,-2
"1484",30,44,0.625474237212357,-1,3,-1,1,1,-1,1704,-3
"1485",30,45,0.64667450501677,-1,2,1,0,1,-1,1674,-4
"1486",30,46,0.641277080890447,1,1,1,1,0,-1,1831,-5
"1487",30,47,0.648289326486257,1,2,-1,0,1,1,2105,-4
"1488",30,48,0.563756312567083,-1,1,-1,1,0,1,2140,-3
"1489",30,49,0.580340791234714,-1,3,1,0,0,1,2067,-2
"1490",30,50,0.716190228496046,1,1,1,1,1,1,2079,-1
"1491",30,51,0.733724872116183,1,2,1,1,1,1,2014,0
"1492",30,52,0.797067666675375,1,3,1,1,1,1,2009,1
"1493",30,53,0.741745650189048,1,2,1,1,1,1,1987,2
"1494",30,54,0.822300437704826,-1,3,-1,1,0,1,2084,3
"1495",30,55,0.827252132112734,1,1,-1,0,0,-1,1791,2
"1496",30,56,0.808622082960611,1,3,-1,0,0,-1,2403,1
"1497",30,57,0.794466890936678,-1,2,-1,1,1,-1,1768,0
"1498",30,58,0.884239581470683,-1,1,-1,1,1,-1,1859,-1
"1499",30,59,0.85541110504564,1,2,1,1,0,-1,2173,-2
"1500",30,60,0.816987305223525,-1,1,1,0,1,-1,1876,-3
"1501",31,1,0.425965709472075,NA,1,NA,NA,NA,NA,NA,13
"1502",31,2,0.368279785650792,1,2,1,1,1,1,2484,14
"1503",31,3,0.256155732022815,1,3,-1,0,1,1,1556,15
"1504",31,4,0.18638388796546,1,2,-1,0,0,-1,2266,14
"1505",31,5,0.114523904741235,-1,1,-1,1,0,1,2232,15
"1506",31,6,0.153843381489695,-1,3,1,0,0,1,3504,16
"1507",31,7,0.375174016019059,-1,1,-1,1,0,1,1895,17
"1508",31,8,0.29171304412337,1,3,-1,0,1,1,3214,18
"1509",31,9,0.435868451132364,-1,2,1,0,1,-1,1857,17
"1510",31,10,0.317973113592577,-1,3,1,0,0,1,3668,18
"1511",31,11,0.425825100905164,1,1,1,1,1,1,2026,19
"1512",31,12,0.459086719758114,-1,2,-1,1,1,-1,3107,18
"1513",31,13,0.46416553413871,-1,1,-1,1,0,1,1816,19
"1514",31,14,0.363910091426698,-1,2,1,0,0,1,2627,20
"1515",31,15,0.335434631416295,-1,3,1,0,0,1,1841,21
"1516",31,16,0.373856148803162,-1,2,1,0,0,1,2361,22
"1517",31,17,0.415596022107032,-1,1,-1,1,0,1,1823,23
"1518",31,18,0.489722193316764,-1,3,1,0,0,1,1865,24
"1519",31,19,0.393149961415142,1,1,1,1,1,1,2068,25
"1520",31,20,0.241893565286612,1,3,-1,0,0,-1,2163,24
"1521",31,21,0.29077498115776,-1,3,1,0,1,-1,2060,23
"1522",31,22,0.235923708233088,-1,1,1,0,1,-1,1820,22
"1523",31,23,0.16626108160144,1,2,-1,0,0,-1,2635,21
"1524",31,24,0.153893367037903,-1,1,1,0,1,-1,1981,20
"1525",31,25,0.223616656473409,-1,3,1,0,0,1,2508,21
"1526",31,26,0.193616893983129,-1,2,1,0,0,1,1812,22
"1527",31,27,0.363457508191266,1,3,-1,0,0,-1,2015,21
"1528",31,28,0.288522185737538,-1,2,-1,1,1,-1,2554,20
"1529",31,29,0.320338311213762,-1,1,-1,1,0,1,1810,21
"1530",31,30,0.413199156687698,1,2,-1,0,0,-1,1843,20
"1531",31,31,0.460199369059389,1,3,-1,0,1,1,1800,21
"1532",31,32,0.55111723273219,-1,1,1,0,1,-1,1887,20
"1533",31,33,0.60174042508983,1,3,-1,0,1,1,1833,21
"1534",31,34,0.628060029088554,1,1,-1,0,0,-1,2795,20
"1535",31,35,0.692069105087469,-1,2,-1,1,0,1,1977,21
"1536",31,36,0.73062532116553,1,1,1,1,1,1,3513,22
"1537",31,37,0.719897343282489,-1,3,-1,1,1,-1,1844,21
"1538",31,38,0.670522809767781,1,2,1,1,0,-1,3600,20
"1539",31,39,0.742448398428584,1,3,1,1,0,-1,1975,19
"1540",31,40,0.748075565361039,1,2,1,1,1,1,1555,20
"1541",31,41,0.763410159624626,1,2,1,1,1,1,1816,21
"1542",31,42,0.853815496810748,1,3,-1,0,1,1,1788,22
"1543",31,43,0.664896372365592,1,1,1,1,1,1,1772,23
"1544",31,44,0.594153393399011,1,3,-1,0,1,1,1836,24
"1545",31,45,0.560124411552144,-1,2,-1,1,1,-1,2493,23
"1546",31,46,0.606615918927453,1,1,1,1,1,1,1972,24
"1547",31,47,0.596646683540793,1,2,1,1,1,1,2145,25
"1548",31,48,0.563006927129705,1,1,-1,0,0,-1,1773,24
"1549",31,49,0.445871185157543,-1,3,-1,1,1,-1,2556,23
"1550",31,50,0.439699292737243,-1,1,-1,1,0,1,1781,24
"1551",31,51,0.503004226564978,-1,2,1,0,0,1,2538,25
"1552",31,52,0.497015948676776,1,3,1,1,0,-1,1780,24
"1553",31,53,0.516864930269274,-1,2,1,0,1,-1,1825,23
"1554",31,54,0.603071594483941,1,3,-1,0,0,-1,2031,22
"1555",31,55,0.558777269374322,1,1,1,1,1,1,1888,23
"1556",31,56,0.718009229349581,1,3,1,1,1,1,1851,24
"1557",31,57,0.718867877479119,1,2,1,1,1,1,1790,25
"1558",31,58,0.692221800325942,-1,1,-1,1,0,1,1759,26
"1559",31,59,0.65082841740853,1,2,-1,0,0,-1,1612,25
"1560",31,60,0.727504997848174,1,1,1,1,1,1,1978,26
"1561",32,1,0.427964775529891,1,2,1,1,1,1,5362,-9
"1562",32,2,0.553290204653391,-1,3,1,0,1,-1,4845,-10
"1563",32,3,0.683495894404879,-1,1,-1,1,1,-1,4459,-11
"1564",32,4,0.818447077657234,1,3,-1,0,1,1,2760,-10
"1565",32,5,0.857392522436246,1,2,1,1,0,-1,3218,-11
"1566",32,6,0.651040430705121,-1,1,-1,1,1,-1,2788,-12
"1567",32,7,0.650186275642476,1,2,1,1,0,-1,2630,-13
"1568",32,8,0.67242571197355,1,1,1,1,0,-1,3019,-14
"1569",32,9,0.684474419336261,-1,3,1,0,1,-1,2580,-15
"1570",32,10,0.717023024255425,1,1,1,1,1,1,2727,-14
"1571",32,11,0.795861285162541,-1,2,1,0,1,-1,5063,-15
"1572",32,12,0.815275138503078,1,3,-1,0,1,1,2747,-14
"1573",32,13,0.748525985060158,1,2,1,1,0,-1,2925,-15
"1574",32,14,0.837130091618273,-1,3,1,0,1,-1,2591,-16
"1575",32,15,0.784909087401299,1,1,-1,0,1,1,2743,-15
"1576",32,16,0.759639843018307,1,3,-1,0,0,-1,2702,-16
"1577",32,17,0.796421934960634,-1,2,1,0,1,-1,2794,-17
"1578",32,18,0.663085687224824,-1,1,-1,1,1,-1,3496,-18
"1579",32,19,0.574058714116623,1,2,-1,0,0,-1,3208,-19
"1580",32,20,0.565536003575806,1,1,1,1,0,-1,2346,-20
"1581",32,21,0.499260091782992,-1,3,1,0,0,1,2189,-19
"1582",32,22,0.445211690164321,-1,1,1,0,1,-1,2604,-20
"1583",32,23,0.453191244563446,-1,2,-1,1,0,1,2571,-19
"1584",32,24,0.533281637884782,1,1,-1,0,1,1,2134,-18
"1585",32,25,0.428916957413446,-1,3,-1,1,0,1,3241,-17
"1586",32,26,0.466670162482961,-1,2,-1,1,1,-1,2814,-18
"1587",32,27,0.345919995111619,-1,3,-1,1,1,-1,2507,-19
"1588",32,28,0.245281863452832,-1,2,-1,1,1,-1,2770,-20
"1589",32,29,0.185162160188924,-1,1,1,0,1,-1,2738,-21
"1590",32,30,0.155780590004586,-1,2,-1,1,1,-1,3293,-22
"1591",32,31,0.231484706448652,-1,3,1,0,1,-1,2636,-23
"1592",32,32,0.33074697005689,-1,1,-1,1,1,-1,2323,-24
"1593",32,33,0.462041142242071,1,3,-1,0,1,1,2610,-23
"1594",32,34,0.615573555200461,1,1,1,1,0,-1,2807,-24
"1595",32,35,0.535588347209424,-1,2,1,0,1,-1,2574,-25
"1596",32,36,0.515526203758098,1,1,1,1,0,-1,2833,-26
"1597",32,37,0.515249917794302,1,3,1,1,0,-1,2556,-27
"1598",32,38,0.56794647228729,1,2,-1,0,0,-1,2565,-28
"1599",32,39,0.534652559296413,-1,3,1,0,0,1,2564,-27
"1600",32,40,0.497176373318279,-1,2,1,0,1,-1,2523,-28
"1601",32,41,0.446009694896726,1,1,1,1,1,1,2375,-27
"1602",32,42,0.307732226211089,-1,2,1,0,0,1,4506,-26
"1603",32,43,0.271148588762056,1,3,1,1,1,1,4037,-25
"1604",32,44,0.244643357425178,-1,2,1,0,0,1,3186,-24
"1605",32,45,0.197459326213974,-1,1,-1,1,1,-1,4364,-25
"1606",32,46,0.265108137480929,-1,3,-1,1,0,1,2725,-24
"1607",32,47,0.319261117315693,-1,1,-1,1,0,1,3228,-23
"1608",32,48,0.422021671674197,-1,3,1,0,1,-1,3204,-24
"1609",32,49,0.480006406265689,1,2,1,1,1,1,4213,-23
"1610",32,50,0.404532914443188,1,3,-1,0,0,-1,4435,-24
"1611",32,51,0.466804590958595,-1,1,-1,1,1,-1,3416,-25
"1612",32,52,0.474510129777146,1,2,1,1,1,1,3770,-24
"1613",32,53,0.514399799472702,-1,1,-1,1,0,1,3815,-23
"1614",32,54,0.432725241395421,-1,2,1,0,1,-1,4427,-24
"1615",32,55,0.414718726292976,1,3,-1,0,1,1,3024,-23
"1616",32,56,0.469818885112546,1,2,-1,0,0,-1,3603,-24
"1617",32,57,0.651372523457494,1,1,1,1,1,1,3180,-23
"1618",32,58,0.671633366163021,1,3,-1,0,1,1,3065,-22
"1619",32,59,0.669892177631711,1,1,-1,0,0,-1,3425,-23
"1620",32,60,0.697762705869797,1,3,-1,0,0,-1,2757,-24
"1621",33,1,0.426003027474508,-1,3,1,0,0,1,2713,27
"1622",33,2,0.382704274743084,1,1,1,1,1,1,1813,28
"1623",33,3,0.392417175111521,-1,2,1,0,0,1,2136,29
"1624",33,4,0.361080153221823,-1,1,-1,1,0,1,1943,30
"1625",33,5,0.459777357504146,-1,3,1,0,0,1,1991,31
"1626",33,6,0.486927426494292,-1,2,-1,1,0,1,2176,32
"1627",33,7,0.5190844463803,1,3,1,1,0,-1,1868,31
"1628",33,8,0.50026262445545,-1,2,1,0,0,1,3019,32
"1629",33,9,0.468692843440666,-1,1,-1,1,0,1,1916,33
"1630",33,10,0.524019187302291,1,2,-1,0,1,1,2113,34
"1631",33,11,0.483851543244747,-1,3,1,0,0,1,1889,35
"1632",33,12,0.44835900313647,1,1,-1,0,0,-1,2026,34
"1633",33,13,0.471874803212384,1,3,1,1,0,-1,1909,33
"1634",33,14,0.489481451197299,1,1,1,1,1,1,1944,34
"1635",33,15,0.631530571765635,1,2,1,1,0,-1,2435,33
"1636",33,16,0.715225619655798,1,1,-1,0,0,-1,2110,32
"1637",33,17,0.740927825081685,-1,3,1,0,0,1,2002,33
"1638",33,18,0.692551246858283,1,2,1,1,1,1,2021,34
"1639",33,19,0.738619505737299,1,3,-1,0,0,-1,2038,33
"1640",33,20,0.823747377841436,1,2,1,1,1,1,3072,34
"1641",33,21,0.869796615770768,1,1,1,1,1,1,2406,35
"1642",33,22,0.809794957981288,1,2,1,1,1,1,2148,36
"1643",33,23,0.845671041319448,1,3,-1,0,1,1,3096,37
"1644",33,24,0.838850830640989,-1,2,-1,1,1,-1,2899,36
"1645",33,25,0.803171013939873,1,1,1,1,1,1,1919,37
"1646",33,26,0.881289450772898,1,3,-1,0,1,1,2601,38
"1647",33,27,0.755703124692595,1,1,1,1,1,1,2039,39
"1648",33,28,0.801172971020543,-1,3,1,0,0,1,1767,40
"1649",33,29,0.794647118953867,1,2,1,1,1,1,2729,41
"1650",33,30,0.698087476054508,1,3,1,1,0,-1,1773,40
"1651",33,31,0.535942232153974,1,1,-1,0,0,-1,1787,39
"1652",33,32,0.528209377400113,-1,2,1,0,1,-1,2933,38
"1653",33,33,0.406025749012885,-1,1,-1,1,0,1,2913,39
"1654",33,34,0.418407514136272,1,2,-1,0,0,-1,1793,38
"1655",33,35,0.454854337682129,-1,3,-1,1,1,-1,2078,37
"1656",33,36,0.449498270886265,1,2,-1,0,0,-1,1855,36
"1657",33,37,0.49871634764447,1,1,1,1,1,1,2426,37
"1658",33,38,0.447969361508022,-1,3,1,0,0,1,1869,38
"1659",33,39,0.402813099985069,1,1,1,1,1,1,1811,39
"1660",33,40,0.35214063004452,1,3,-1,0,0,-1,2036,38
"1661",33,41,0.312809120862921,1,2,-1,0,0,-1,2012,37
"1662",33,42,0.355330688324406,-1,3,1,0,0,1,1800,38
"1663",33,43,0.377389334162708,-1,1,-1,1,0,1,1660,39
"1664",33,44,0.486797076037206,-1,3,1,0,0,1,1565,40
"1665",33,45,0.529687083522961,-1,2,-1,1,0,1,1805,41
"1666",33,46,0.567000545917498,1,1,1,1,1,1,1608,42
"1667",33,47,0.492727775046924,1,2,-1,0,0,-1,1906,41
"1668",33,48,0.550953693152971,-1,1,-1,1,0,1,1629,42
"1669",33,49,0.60594644899713,1,3,1,1,0,-1,1555,41
"1670",33,50,0.509213033222112,1,1,-1,0,0,-1,1652,40
"1671",33,51,0.377243522041332,1,2,-1,0,0,-1,1609,39
"1672",33,52,0.441059950913639,1,3,-1,0,1,1,1527,40
"1673",33,53,0.480517539129547,-1,2,1,0,1,-1,1540,39
"1674",33,54,0.397080985081492,-1,3,1,0,1,-1,2621,38
"1675",33,55,0.469901173844069,1,1,1,1,1,1,1673,39
"1676",33,56,0.492175838975548,1,3,-1,0,1,1,1655,40
"1677",33,57,0.563826653751672,-1,2,-1,1,0,1,1742,41
"1678",33,58,0.508507847328297,-1,1,1,0,1,-1,1673,40
"1679",33,59,0.466026355694025,-1,2,-1,1,0,1,1620,41
"1680",33,60,0.402662587625635,-1,1,-1,1,0,1,1631,42
"1681",34,1,0.578558873245493,-1,3,1,0,0,1,2604,-16
"1682",34,2,0.673149011414179,1,1,1,1,1,1,2491,-15
"1683",34,3,0.743749877419706,NA,2,NA,NA,NA,NA,NA,-15
"1684",34,4,0.761362490405493,1,1,1,1,0,-1,3523,-16
"1685",34,5,0.688509259842857,1,3,-1,0,0,-1,2560,-17
"1686",34,6,0.856029462600954,1,2,-1,0,0,-1,1735,-18
"1687",34,7,0.87159068114769,1,3,1,1,1,1,1639,-17
"1688",34,8,0.830956972810322,1,2,1,1,1,1,2007,-16
"1689",34,9,0.824036781964899,-1,1,-1,1,1,-1,1999,-17
"1690",34,10,0.825576169083489,1,2,-1,0,1,1,2513,-16
"1691",34,11,0.867962766666169,-1,3,1,0,1,-1,2056,-17
"1692",34,12,0.831264852024854,1,1,1,1,1,1,1680,-16
"1693",34,13,0.676421503531827,1,3,-1,0,1,1,1927,-15
"1694",34,14,0.556123876730616,1,1,-1,0,1,1,2696,-14
"1695",34,15,0.366819765883509,1,2,1,1,1,1,3466,-13
"1696",34,16,0.382222344656721,1,1,1,1,1,1,2005,-12
"1697",34,17,0.320083086865885,1,3,-1,0,1,1,3064,-11
"1698",34,18,0.37412890290854,1,2,1,1,1,1,1599,-10
"1699",34,19,0.506588903870246,1,3,1,1,1,1,1640,-9
"1700",34,20,0.419627864114522,-1,2,-1,1,1,-1,1537,-10
"1701",34,21,0.454506018372631,-1,1,-1,1,1,-1,2065,-11
"1702",34,22,0.459459443591314,1,2,-1,0,1,1,2031,-10
"1703",34,23,0.57938868319827,-1,3,1,0,1,-1,2006,-11
"1704",34,24,0.500391900542401,1,2,-1,0,1,1,1678,-10
"1705",34,25,0.607868146292111,-1,1,-1,1,1,-1,2464,-11
"1706",34,26,0.683095042229537,-1,3,-1,1,1,-1,1632,-12
"1707",34,27,0.660939523016436,1,1,1,1,1,1,1655,-11
"1708",34,28,0.765609502985342,1,3,-1,0,1,1,4112,-10
"1709",34,29,0.705670225094151,-1,2,-1,1,0,1,3110,-9
"1710",34,30,0.617360554514823,-1,3,1,0,1,-1,1688,-10
"1711",34,31,0.688986152633459,-1,1,1,0,1,-1,1584,-11
"1712",34,32,0.620660931045565,-1,2,-1,1,0,1,1985,-10
"1713",34,33,0.596383786545451,1,1,1,1,1,1,2815,-9
"1714",34,34,0.563394574153651,-1,2,1,0,1,-1,1847,-10
"1715",34,35,0.592341836263153,1,3,-1,0,1,1,2840,-9
"1716",34,36,0.457082349809115,-1,2,-1,1,1,-1,1584,-10
"1717",34,37,0.498406639471773,-1,1,1,0,1,-1,3807,-11
"1718",34,38,0.557055474436072,-1,3,1,0,1,-1,1800,-12
"1719",34,39,0.496523494307182,1,1,1,1,1,1,1623,-11
"1720",34,40,0.460267467319573,-1,3,-1,1,0,1,1720,-10
"1721",34,41,0.550153018873526,-1,2,1,0,0,1,1936,-9
"1722",34,42,0.498421343079028,-1,3,1,0,0,1,1712,-8
"1723",34,43,0.518928721657216,1,1,1,1,1,1,1777,-7
"1724",34,44,0.54610786863295,1,3,1,1,0,-1,2183,-8
"1725",34,45,0.295806236166296,-1,2,1,0,1,-1,3281,-9
"1726",34,46,0.218026241785261,-1,1,1,0,1,-1,1520,-10
"1727",34,47,0.122099307806958,-1,2,1,0,1,-1,1838,-11
"1728",34,48,0.175544258936998,-1,1,1,0,1,-1,1525,-12
"1729",34,49,0.132431331176552,-1,3,1,0,0,1,1627,-11
"1730",34,50,0.128640141305618,-1,1,-1,1,1,-1,1793,-12
"1731",34,51,0.205577143296482,-1,2,-1,1,1,-1,1815,-13
"1732",34,52,0.118979327207349,-1,3,1,0,0,1,2055,-12
"1733",34,53,0.106896815232258,-1,2,1,0,0,1,1567,-11
"1734",34,54,0.157813025549142,-1,3,1,0,0,1,1551,-10
"1735",34,55,0.203306995763089,-1,1,-1,1,0,1,2008,-9
"1736",34,56,0.122994934005233,-1,3,1,0,1,-1,1887,-10
"1737",34,57,0.105029632151345,-1,2,-1,1,0,1,5039,-9
"1738",34,58,0.135353014633445,1,1,1,1,0,-1,4112,-10
"1739",34,59,0.10148113113862,-1,2,1,0,1,-1,2495,-11
"1740",34,60,0.293510518352443,-1,1,-1,1,1,-1,2016,-12
"1741",35,1,0.579683522168404,1,3,1,1,0,-1,3242,11
"1742",35,2,0.588980821345901,-1,1,-1,1,1,-1,3696,10
"1743",35,3,0.669871620095478,1,2,-1,0,0,-1,3036,9
"1744",35,4,0.611286724480142,1,1,-1,0,0,-1,4111,8
"1745",35,5,0.581219751809779,1,3,-1,0,0,-1,1711,7
"1746",35,6,0.485718863310728,1,2,1,1,1,1,3008,8
"1747",35,7,0.568906166089262,1,3,-1,0,0,-1,2384,7
"1748",35,8,0.602185123087269,1,2,1,1,1,1,1696,8
"1749",35,9,0.595173983620061,1,1,1,1,1,1,2191,9
"1750",35,10,0.617922344546339,-1,2,1,0,1,-1,1840,8
"1751",35,11,0.657671595138824,1,3,-1,0,1,1,1871,9
"1752",35,12,0.691461420513835,1,1,1,1,1,1,2719,10
"1753",35,13,0.658414528417307,-1,3,1,0,0,1,1936,11
"1754",35,14,0.69462080230634,-1,1,1,0,1,-1,2863,10
"1755",35,15,0.607870456811395,-1,2,-1,1,0,1,2319,11
"1756",35,16,0.573225793941678,1,1,1,1,1,1,2303,12
"1757",35,17,0.58857455733894,-1,3,1,0,0,1,2688,13
"1758",35,18,0.724052454111692,1,2,-1,0,0,-1,2384,12
"1759",35,19,0.759073230634592,-1,3,1,0,0,1,1920,13
"1760",35,20,0.78009419738291,1,2,-1,0,0,-1,2095,12
"1761",35,21,0.845575587466552,1,2,-1,0,0,-1,3454,11
"1762",35,22,0.816638846181738,-1,3,1,0,0,1,2415,12
"1763",35,23,0.746986132530477,-1,1,-1,1,0,1,2640,13
"1764",35,24,0.63544614806695,-1,3,1,0,0,1,2095,14
"1765",35,25,0.597133317571528,1,2,-1,0,0,-1,2384,13
"1766",35,26,0.481064830347269,-1,1,-1,1,0,1,2160,14
"1767",35,27,0.38620597361642,-1,2,-1,1,1,-1,4112,13
"1768",35,28,0.294019073373348,-1,1,-1,1,0,1,2687,14
"1769",35,29,0.367043238450689,1,3,-1,0,1,1,1823,15
"1770",35,30,0.245173973019398,-1,1,1,0,1,-1,1966,14
"1771",35,31,0.226870926997218,-1,2,-1,1,0,1,1936,15
"1772",35,32,0.190050279199721,-1,3,1,0,1,-1,2384,14
"1773",35,33,0.233849471101733,-1,2,1,0,1,-1,2927,13
"1774",35,34,0.167928719760349,-1,3,1,0,0,1,3248,14
"1775",35,35,0.260881043343746,-1,1,-1,1,0,1,1855,15
"1776",35,36,0.370148915565886,-1,3,1,0,0,1,1935,16
"1777",35,37,0.452001347837402,1,2,1,1,0,-1,2158,15
"1778",35,38,0.457697626129132,-1,1,1,0,1,-1,1806,14
"1779",35,39,0.56525353762734,1,2,1,1,1,1,1899,15
"1780",35,40,0.481040971042912,-1,1,-1,1,0,1,1876,16
"1781",35,41,0.357002105123124,-1,1,1,0,1,-1,1853,15
"1782",35,42,0.374939779677613,1,2,1,1,1,1,1650,16
"1783",35,43,0.236597669354713,-1,3,1,0,0,1,2863,17
"1784",35,44,0.247260095901408,-1,2,1,0,1,-1,1953,16
"1785",35,45,0.28943163064364,1,1,1,1,1,1,1861,17
"1786",35,46,0.259412851876813,-1,3,-1,1,1,-1,1808,16
"1787",35,47,0.25166353780085,1,1,1,1,1,1,1902,17
"1788",35,48,0.310602981245246,-1,3,-1,1,1,-1,1935,16
"1789",35,49,0.230962356550656,1,2,-1,0,0,-1,2532,15
"1790",35,50,0.146894884349588,1,3,-1,0,1,1,1790,16
"1791",35,51,0.122847033516042,-1,1,-1,1,0,1,1885,17
"1792",35,52,0.183090461752239,-1,2,1,0,0,1,2082,18
"1793",35,53,0.214236363165276,1,1,1,1,1,1,1902,19
"1794",35,54,0.225475488468108,-1,2,-1,1,0,1,1873,20
"1795",35,55,0.217514856321767,1,3,1,1,0,-1,2093,19
"1796",35,56,0.269174678489241,1,2,1,1,0,-1,1857,18
"1797",35,57,0.480819078421229,1,1,1,1,1,1,1921,19
"1798",35,58,0.409746613505528,-1,3,-1,1,1,-1,1886,18
"1799",35,59,0.459007607548157,-1,1,-1,1,0,1,1936,19
"1800",35,60,0.402650525954979,-1,3,1,0,0,1,2336,20
"1801",36,1,0.547004925692212,-1,1,-1,1,1,-1,3687,-5
"1802",36,2,0.547412847153803,-1,2,1,0,1,-1,2090,-6
"1803",36,3,0.605371550191096,1,3,-1,0,1,1,4334,-5
"1804",36,4,0.655803046839612,-1,2,-1,1,1,-1,4451,-6
"1805",36,5,0.627773116617132,1,1,1,1,1,1,2394,-5
"1806",36,6,0.564242750696978,1,3,1,1,1,1,2034,-4
"1807",36,7,0.537394528470508,-1,1,-1,1,1,-1,2436,-5
"1808",36,8,0.562837388892132,1,3,-1,0,1,1,2880,-4
"1809",36,9,0.43972783401365,1,2,1,1,1,1,1981,-3
"1810",36,10,0.428810079935115,-1,3,-1,1,1,-1,2870,-4
"1811",36,11,0.515203398789548,-1,1,-1,1,1,-1,2166,-5
"1812",36,12,0.498089450421096,1,2,1,1,1,1,2127,-4
"1813",36,13,0.623930032148914,-1,1,-1,1,1,-1,2409,-5
"1814",36,14,0.450140266803587,1,2,-1,0,1,1,2042,-4
"1815",36,15,0.460079325459345,1,3,-1,0,1,1,2093,-3
"1816",36,16,0.466505395379365,-1,2,1,0,1,-1,2216,-4
"1817",36,17,0.516328690576132,1,1,1,1,1,1,2067,-3
"1818",36,18,0.52852015670235,1,3,-1,0,1,1,2109,-2
"1819",36,19,0.508339124481561,1,1,1,1,1,1,2754,-1
"1820",36,20,0.489276873491529,1,3,-1,0,1,1,2060,0
"1821",36,21,0.556830387544508,1,3,-1,0,1,1,1586,1
"1822",36,22,0.599136027399168,-1,1,-1,1,1,-1,2063,0
"1823",36,23,0.593201138075934,1,2,1,1,1,1,2122,1
"1824",36,24,0.630244277698953,1,1,1,1,1,1,2002,2
"1825",36,25,0.674312197531494,1,3,-1,0,0,-1,2522,1
"1826",36,26,0.58610279275766,1,2,-1,0,1,1,2353,2
"1827",36,27,0.679723654815048,1,3,-1,0,1,1,2187,3
"1828",36,28,0.733574038267077,-1,2,1,0,1,-1,2116,2
"1829",36,29,0.779999057824085,1,1,1,1,1,1,2073,3
"1830",36,30,0.751226070941915,-1,2,-1,1,1,-1,4250,2
"1831",36,31,0.66289145069618,-1,3,-1,1,0,1,2293,3
"1832",36,32,0.524507881195115,1,1,1,1,1,1,2271,4
"1833",36,33,0.541038645935581,-1,3,1,0,1,-1,4090,3
"1834",36,34,0.608682820774804,-1,1,1,0,0,1,2225,4
"1835",36,35,0.619698584346193,1,2,1,1,1,1,2147,5
"1836",36,36,0.659873879912302,1,1,-1,0,1,1,3013,6
"1837",36,37,0.570360221511729,-1,3,1,0,1,-1,2175,5
"1838",36,38,0.535989649668799,-1,2,-1,1,0,1,2109,6
"1839",36,39,0.44606974656334,1,3,-1,0,0,-1,2222,5
"1840",36,40,0.400573578506971,1,2,1,1,1,1,2236,6
"1841",36,41,0.350170185091385,-1,2,-1,1,1,-1,2243,5
"1842",36,42,0.23306070895643,-1,3,1,0,1,-1,2158,4
"1843",36,43,0.240706281749464,-1,1,1,0,1,-1,2211,3
"1844",36,44,0.315686315954943,1,3,-1,0,1,1,2239,4
"1845",36,45,0.262244002900903,1,2,-1,0,1,1,2251,5
"1846",36,46,0.289584907982643,-1,1,-1,1,1,-1,2252,4
"1847",36,47,0.234508982548855,-1,2,1,0,0,1,2335,5
"1848",36,48,0.267863671835532,1,1,1,1,1,1,2252,6
"1849",36,49,0.355711500224203,-1,3,-1,1,1,-1,2154,5
"1850",36,50,0.222159126806994,-1,1,1,0,1,-1,1598,4
"1851",36,51,0.219928707458383,-1,2,1,0,1,-1,2354,3
"1852",36,52,0.181364861327781,-1,3,-1,1,1,-1,1736,2
"1853",36,53,0.233726050261882,-1,2,-1,1,1,-1,2325,1
"1854",36,54,0.240328451653656,-1,3,1,0,0,1,2356,2
"1855",36,55,0.257341476415685,-1,1,-1,1,0,1,2131,3
"1856",36,56,0.394135623158089,-1,3,1,0,0,1,2342,4
"1857",36,57,0.410742939483059,1,2,-1,0,0,-1,2328,3
"1858",36,58,0.483811120771681,1,1,1,1,1,1,2573,4
"1859",36,59,0.449042475863789,-1,2,1,0,1,-1,2449,3
"1860",36,60,0.481862998164696,1,1,-1,0,1,1,5066,4
"1861",37,1,0.529711617203429,1,1,1,1,1,1,2757,3
"1862",37,2,0.603054790314013,1,2,-1,0,0,-1,1870,2
"1863",37,3,0.639979226764005,1,3,1,1,0,-1,4047,1
"1864",37,4,0.698592140395498,1,2,1,1,0,-1,1768,0
"1865",37,5,0.626413513846924,1,1,1,1,1,1,1880,1
"1866",37,6,0.585186600510251,1,3,-1,0,0,-1,2358,0
"1867",37,7,0.642065374871282,1,1,-1,0,1,1,1832,1
"1868",37,8,0.69889609300658,1,3,-1,0,1,1,3143,2
"1869",37,9,0.698616720983655,1,2,1,1,1,1,1792,3
"1870",37,10,0.725020799394881,1,3,-1,0,1,1,1789,4
"1871",37,11,0.795486731040873,1,1,1,1,1,1,1808,5
"1872",37,12,0.737447280780301,1,2,1,1,1,1,1816,6
"1873",37,13,0.700457246868313,1,1,1,1,1,1,3011,7
"1874",37,14,0.633741817746164,1,2,1,1,1,1,2571,8
"1875",37,15,0.593720644411239,1,3,-1,0,1,1,1944,9
"1876",37,16,0.559926990263568,-1,2,1,0,1,-1,1887,8
"1877",37,17,0.531275316366355,1,1,1,1,1,1,2040,9
"1878",37,18,0.504412090710269,1,3,-1,0,1,1,1792,10
"1879",37,19,0.460762282664022,1,1,1,1,1,1,1856,11
"1880",37,20,0.48515374230356,1,3,-1,0,1,1,3279,12
"1881",37,21,0.393899780211967,-1,2,1,0,1,-1,1841,11
"1882",37,22,0.332371476889575,1,3,-1,0,0,-1,1879,10
"1883",37,23,0.361858303431407,-1,1,-1,1,0,1,1823,11
"1884",37,24,0.384172477169823,-1,3,1,0,0,1,1807,12
"1885",37,25,0.355700540731772,-1,2,-1,1,1,-1,2105,11
"1886",37,26,0.281403501646579,1,1,-1,0,0,-1,1801,10
"1887",37,27,0.389253091673793,1,2,1,1,1,1,1814,11
"1888",37,28,0.446678995408524,-1,1,-1,1,1,-1,2190,10
"1889",37,29,0.455812495194166,-1,3,-1,1,0,1,1896,11
"1890",37,30,0.584437521868508,1,1,-1,0,0,-1,1768,10
"1891",37,31,0.590971256812855,1,2,-1,0,1,1,1759,11
"1892",37,32,0.598515595755909,1,3,-1,0,1,1,1760,12
"1893",37,33,0.621023487662296,1,2,-1,0,1,1,1759,13
"1894",37,34,0.672501517319492,1,3,-1,0,1,1,1864,14
"1895",37,35,0.654327269165377,1,1,1,1,1,1,1776,15
"1896",37,36,0.597719402076325,1,3,1,1,1,1,2888,16
"1897",37,37,0.450144877653621,-1,2,-1,1,1,-1,1785,15
"1898",37,38,0.482047500950574,-1,1,-1,1,0,1,1752,16
"1899",37,39,0.476750534654537,-1,2,-1,1,0,1,1815,17
"1900",37,40,0.481695802939056,-1,1,-1,1,0,1,1928,18
"1901",37,41,0.598244522194369,-1,3,1,0,1,-1,2137,17
"1902",37,42,0.521081465129459,-1,1,1,0,1,-1,1750,16
"1903",37,43,0.490098765630822,-1,2,-1,1,1,-1,1726,15
"1904",37,44,0.501435590610308,1,1,1,1,1,1,1752,16
"1905",37,45,0.503341047277552,-1,3,-1,1,1,-1,2171,15
"1906",37,46,0.406344342802394,1,2,-1,0,0,-1,1853,14
"1907",37,47,0.394026107285714,-1,3,1,0,1,-1,1987,13
"1908",37,48,0.399270008632726,-1,2,1,0,1,-1,1976,12
"1909",37,49,0.251840027174535,-1,1,-1,1,0,1,2880,13
"1910",37,50,0.185302312062117,-1,2,1,0,0,1,2009,14
"1911",37,51,0.2565740818918,-1,3,1,0,0,1,1839,15
"1912",37,52,0.342670869184235,1,1,-1,0,0,-1,1841,14
"1913",37,53,0.250616205552245,-1,3,1,0,1,-1,1830,13
"1914",37,54,0.21741308927269,-1,1,-1,1,0,1,2560,14
"1915",37,55,0.138128223065329,1,2,1,1,0,-1,2295,13
"1916",37,56,0.104184743560816,-1,1,-1,1,0,1,1795,14
"1917",37,57,0.147788637140499,-1,3,1,0,1,-1,1964,13
"1918",37,58,0.152266895012183,-1,2,1,0,0,1,1768,14
"1919",37,59,0.177769524161471,-1,3,-1,1,0,1,2024,15
"1920",37,60,0.135821583463624,1,2,-1,0,1,1,2047,16
"1921",38,1,0.403002457600087,1,2,-1,0,1,1,1641,-1
"1922",38,2,0.336880559996421,1,3,-1,0,0,-1,2824,-2
"1923",38,3,0.303535851352941,-1,1,-1,1,1,-1,1984,-3
"1924",38,4,0.363586346625049,1,3,-1,0,1,1,1535,-2
"1925",38,5,0.387794388303594,1,2,1,1,1,1,1784,-1
"1926",38,6,0.415957847891189,1,1,-1,0,1,1,2112,0
"1927",38,7,0.29001243667778,-1,2,1,0,1,-1,1839,-1
"1928",38,8,0.185416849445348,-1,1,1,0,0,1,2033,0
"1929",38,9,0.221841022750853,-1,3,1,0,1,-1,1937,-1
"1930",38,10,0.181438119095334,-1,1,-1,1,1,-1,2176,-2
"1931",38,11,0.205323345343081,1,2,1,1,1,1,1768,-1
"1932",38,12,0.237615200693118,-1,3,-1,1,0,1,2096,0
"1933",38,13,0.340531062755603,1,2,1,1,1,1,1872,1
"1934",38,14,0.284373067282696,-1,3,-1,1,0,1,1912,2
"1935",38,15,0.447629968715277,1,1,1,1,0,-1,2664,1
"1936",38,16,0.461605699471618,1,3,-1,0,0,-1,2184,0
"1937",38,17,0.503500440015391,1,2,1,1,1,1,2064,1
"1938",38,18,0.530203653517597,-1,1,-1,1,1,-1,2128,0
"1939",38,19,0.58232684612033,-1,2,-1,1,0,1,2408,1
"1940",38,20,0.548097024878145,-1,1,-1,1,1,-1,3304,0
"1941",38,21,0.486245692151177,-1,3,1,0,0,1,2016,1
"1942",38,22,0.538497652551226,1,1,-1,0,0,-1,1880,0
"1943",38,23,0.516733540283127,-1,2,-1,1,0,1,1960,1
"1944",38,24,0.449489903997792,-1,1,-1,1,0,1,2224,2
"1945",38,25,0.40367404904026,1,3,-1,0,0,-1,2512,1
"1946",38,26,0.41539522642906,1,2,-1,0,0,-1,1816,0
"1947",38,27,0.492511221365871,1,3,-1,0,0,-1,2088,-1
"1948",38,28,0.515201477228946,-1,2,1,0,1,-1,1832,-2
