"","SubID","trial_num","pUP","stock_outcome","Advisor","Advice","AdvisorCorrect","choice","outcome","rt","tally"
"1",1,1,0.512300386326388,1,1,-1,0,1,1,3555,37
"2",1,2,0.505961421741707,1,2,1,1,1,1,2272,38
"3",1,3,0.527647414203337,NA,3,NA,NA,NA,NA,NA,39
"4",1,4,0.491629077440749,-1,2,1,0,1,-1,2958,38
"5",1,5,0.529324032795991,1,1,1,1,1,1,1779,39
"6",1,6,0.382917400135619,NA,3,NA,NA,NA,NA,NA,40
"7",1,7,0.495533893136178,1,1,1,1,1,1,1638,41
"8",1,8,0.381510158599799,NA,3,NA,NA,NA,NA,NA,40
"9",1,9,0.340894379812198,NA,2,NA,NA,NA,NA,NA,39
"10",1,10,0.284299316254112,NA,3,NA,NA,NA,NA,NA,40
"11",1,11,0.312072605546211,1,1,1,1,1,1,1523,41
"12",1,12,0.269679614921789,NA,2,NA,NA,NA,NA,NA,42
"13",1,13,0.21626707142944,-1,1,1,0,1,-1,2478,41
"14",1,14,0.24845018187373,-1,2,1,0,1,-1,1905,40
"15",1,15,0.106732939156943,NA,3,NA,NA,NA,NA,NA,41
"16",1,16,0.106919429922732,-1,2,1,0,1,-1,2038,40
"17",1,17,0.223972210033294,NA,1,NA,NA,NA,NA,NA,41
"18",1,18,0.313187211777257,NA,3,NA,NA,NA,NA,NA,40
"19",1,19,0.254177623329533,-1,1,1,0,1,-1,1550,39
"20",1,20,0.242281823919443,1,3,-1,0,1,1,1644,40
"21",1,21,0.223246202974816,NA,3,NA,NA,NA,NA,NA,39
"22",1,22,0.289948345193539,NA,1,NA,NA,NA,NA,NA,40
"23",1,23,0.343430723520693,-1,2,1,0,1,-1,1611,39
"24",1,24,0.421412157724203,1,1,1,1,1,1,1534,40
"25",1,25,0.414682456964584,1,3,-1,0,1,1,2295,41
"26",1,26,0.395370469369147,1,2,-1,0,1,1,2087,42
"27",1,27,0.327488049042607,-1,3,1,0,1,-1,2190,41
"28",1,28,0.464139950719539,NA,2,NA,NA,NA,NA,NA,42
"29",1,29,0.631942528739696,NA,1,NA,NA,NA,NA,NA,43
"30",1,30,0.511360577157215,NA,2,NA,NA,NA,NA,NA,42
"31",1,31,0.617983184740414,NA,3,NA,NA,NA,NA,NA,43
"32",1,32,0.638194036457755,NA,1,NA,NA,NA,NA,NA,44
"33",1,33,0.547681848669499,1,3,-1,0,1,1,2095,45
"34",1,34,0.64038782596222,1,1,1,1,1,1,1990,46
"35",1,35,0.668480059245592,1,2,1,1,1,1,1791,47
"36",1,36,0.655312969143298,-1,1,-1,1,1,-1,2528,46
"37",1,37,0.659293563685357,NA,3,NA,NA,NA,NA,NA,45
"38",1,38,0.623140791386516,NA,2,NA,NA,NA,NA,NA,44
"39",1,39,0.668266731286299,1,3,-1,0,1,1,1725,45
"40",1,40,0.560904519089329,NA,2,NA,NA,NA,NA,NA,46
"41",1,41,0.538405018264884,-1,2,1,0,1,-1,2417,45
"42",1,42,0.633940404599506,1,3,-1,0,1,1,1792,46
"43",1,43,0.736126477765379,-1,1,1,0,1,-1,1855,45
"44",1,44,0.763747713893664,1,3,-1,0,1,1,2066,46
"45",1,45,0.781280585668471,1,2,1,1,1,1,1939,47
"46",1,46,0.879434876985035,NA,1,NA,NA,NA,NA,NA,46
"47",1,47,0.886047085917824,1,2,1,1,1,1,1903,47
"48",1,48,0.854542561509214,1,1,1,1,1,1,1891,48
"49",1,49,0.878549490820419,-1,3,-1,1,1,-1,1912,47
"50",1,50,0.697654176791882,1,1,1,1,1,1,2864,48
"51",1,51,0.798406524060794,-1,2,-1,1,1,-1,1606,47
"52",1,52,0.797613765511448,1,3,-1,0,1,1,2052,48
"53",1,53,0.884601995047612,-1,2,1,0,1,-1,1745,47
"54",1,54,0.894706462398929,1,3,-1,0,1,1,1608,48
"55",1,55,0.878744794483249,1,1,1,1,1,1,1898,49
"56",1,56,0.736099294169307,NA,3,NA,NA,NA,NA,NA,48
"57",1,57,0.540620103406903,1,2,1,1,1,1,2732,49
"58",1,58,0.621394949104809,1,1,1,1,1,1,1916,50
"59",1,59,0.713971223350081,NA,2,NA,NA,NA,NA,NA,49
"60",1,60,0.702579408569062,1,1,1,1,1,1,2604,50
"61",2,1,0.557952759042382,1,2,1,1,1,1,4592,25
"62",2,2,0.595546792939512,NA,3,NA,NA,NA,NA,NA,24
"63",2,3,0.708743227681911,NA,1,NA,NA,NA,NA,NA,25
"64",2,4,0.751101726631186,NA,3,NA,NA,NA,NA,NA,26
"65",2,5,0.823018647494706,NA,2,NA,NA,NA,NA,NA,25
"66",2,6,0.825828346274213,NA,1,NA,NA,NA,NA,NA,26
"67",2,7,0.88753417540723,NA,2,NA,NA,NA,NA,NA,25
"68",2,8,0.840103510176317,1,1,1,1,1,1,1792,26
"69",2,9,0.84241470563821,NA,3,NA,NA,NA,NA,NA,27
"70",2,10,0.739873794526469,1,1,1,1,1,1,1768,28
"71",2,11,0.790473317284427,1,2,-1,0,1,1,1921,29
"72",2,12,0.811424626116714,-1,3,-1,1,1,-1,2056,28
"73",2,13,0.762794540124101,NA,2,NA,NA,NA,NA,NA,27
"74",2,14,0.658483413001466,1,3,-1,0,1,1,1912,28
"75",2,15,0.738209509153417,1,1,1,1,1,1,1832,29
"76",2,16,0.687099603766183,1,3,-1,0,1,1,1904,30
"77",2,17,0.693539888999102,NA,2,NA,NA,NA,NA,NA,29
"78",2,18,0.645753003189842,NA,1,NA,NA,NA,NA,NA,28
"79",2,19,0.691230641125469,NA,2,NA,NA,NA,NA,NA,29
"80",2,20,0.680418367063815,NA,1,NA,NA,NA,NA,NA,28
"81",2,21,0.682815891770441,1,1,1,1,1,1,1928,29
"82",2,22,0.712220730050502,1,2,1,1,1,1,1954,30
"83",2,23,0.708938092011114,1,3,-1,0,1,1,1840,31
"84",2,24,0.57107648178976,1,2,-1,0,1,1,2000,32
"85",2,25,0.433670630273241,-1,1,1,0,1,-1,2266,31
"86",2,26,0.566975473200979,NA,3,NA,NA,NA,NA,NA,30
"87",2,27,0.496273811071107,NA,1,NA,NA,NA,NA,NA,31
"88",2,28,0.563433861792671,NA,3,NA,NA,NA,NA,NA,32
"89",2,29,0.474229860104636,NA,2,NA,NA,NA,NA,NA,33
"90",2,30,0.416072715895017,1,3,-1,0,1,1,1889,34
"91",2,31,0.40813506237644,NA,1,NA,NA,NA,NA,NA,33
"92",2,32,0.362188366846952,-1,2,1,0,1,-1,2024,32
"93",2,33,0.424502834964328,NA,1,NA,NA,NA,NA,NA,33
"94",2,34,0.430723273612829,1,2,1,1,1,1,2273,34
"95",2,35,0.434479308520862,1,3,-1,0,1,1,1977,35
"96",2,36,0.416459525086382,1,2,1,1,1,1,2560,36
"97",2,37,0.348543236806457,NA,1,NA,NA,NA,NA,NA,37
"98",2,38,0.285739573786177,NA,3,NA,NA,NA,NA,NA,38
"99",2,39,0.323705784229023,NA,1,NA,NA,NA,NA,NA,39
"100",2,40,0.363326517459274,NA,3,NA,NA,NA,NA,NA,40
"101",2,41,0.399977289673005,-1,3,-1,1,1,-1,1871,39
"102",2,42,0.340122236961087,NA,1,NA,NA,NA,NA,NA,40
"103",2,43,0.244489596961458,NA,2,NA,NA,NA,NA,NA,39
"104",2,44,0.180545729780179,NA,1,NA,NA,NA,NA,NA,40
"105",2,45,0.211866145128497,NA,3,NA,NA,NA,NA,NA,41
"106",2,46,0.270044101668398,1,2,-1,0,1,1,2001,42
"107",2,47,0.195998754615827,-1,3,-1,1,1,-1,1929,41
"108",2,48,0.203855258129696,-1,2,-1,1,1,-1,1984,40
"109",2,49,0.166347458991501,1,1,1,1,1,1,1776,41
"110",2,50,0.224399720187328,NA,2,NA,NA,NA,NA,NA,40
"111",2,51,0.262809989711047,1,3,-1,0,1,1,1793,41
"112",2,52,0.316800998821728,-1,1,1,0,1,-1,2072,40
"113",2,53,0.417110036161363,1,3,-1,0,1,1,1776,41
"114",2,54,0.398071779725277,1,1,1,1,1,1,1809,42
"115",2,55,0.501004118843792,NA,2,NA,NA,NA,NA,NA,43
"116",2,56,0.554048013815593,1,1,1,1,1,1,1800,44
"117",2,57,0.449704168747439,NA,3,NA,NA,NA,NA,NA,45
"118",2,58,0.387336396449304,-1,2,1,0,1,-1,1944,44
"119",2,59,0.321602326976496,NA,3,NA,NA,NA,NA,NA,45
"120",2,60,0.303092816978576,-1,2,1,0,1,-1,1849,44
"121",3,1,0.521049928525463,-1,2,1,0,1,-1,3070,16
"122",3,2,0.602418801028713,NA,3,NA,NA,NA,NA,NA,15
"123",3,3,0.585814551184661,1,1,1,1,1,1,3227,16
"124",3,4,0.522658551481833,NA,3,NA,NA,NA,NA,NA,15
"125",3,5,0.35528296905579,-1,2,1,0,1,-1,2524,14
"126",3,6,0.321996633828148,NA,1,NA,NA,NA,NA,NA,15
"127",3,7,0.262556680384207,NA,2,NA,NA,NA,NA,NA,16
"128",3,8,0.223430513050907,-1,1,1,0,1,-1,1786,15
"129",3,9,0.137670484265998,NA,3,NA,NA,NA,NA,NA,16
"130",3,10,0.286727714397521,-1,1,1,0,1,-1,2070,15
"131",3,11,0.338614792542282,1,2,-1,0,1,1,2314,16
"132",3,12,0.31642369246367,NA,3,NA,NA,NA,NA,NA,17
"133",3,13,0.252000983315094,-1,2,1,0,1,-1,1590,16
"134",3,14,0.229587207013817,NA,3,NA,NA,NA,NA,NA,15
"135",3,15,0.319966633758528,NA,1,NA,NA,NA,NA,NA,14
"136",3,16,0.271841666456992,NA,3,NA,NA,NA,NA,NA,13
"137",3,17,0.320623048766741,-1,2,1,0,1,-1,1607,12
"138",3,18,0.30690412662478,NA,1,NA,NA,NA,NA,NA,13
"139",3,19,0.420382828335762,NA,2,NA,NA,NA,NA,NA,14
"140",3,20,0.312085128262148,1,1,1,1,1,1,1582,15
"141",3,21,0.406202306060664,NA,1,NA,NA,NA,NA,NA,16
"142",3,22,0.472945334804616,NA,2,NA,NA,NA,NA,NA,17
"143",3,23,0.485581595665822,-1,3,1,0,1,-1,1696,16
"144",3,24,0.53075938882031,NA,2,NA,NA,NA,NA,NA,17
"145",3,25,0.468737911517301,NA,1,NA,NA,NA,NA,NA,18
"146",3,26,0.490969394333022,1,3,-1,0,1,1,1663,19
"147",3,27,0.530984590643053,NA,1,NA,NA,NA,NA,NA,18
"148",3,28,0.620005921882819,-1,3,-1,1,1,-1,2341,17
"149",3,29,0.501216447140132,NA,2,NA,NA,NA,NA,NA,16
"150",3,30,0.47783475411484,NA,3,NA,NA,NA,NA,NA,17
"151",3,31,0.521467952679948,1,1,1,1,1,1,1512,18
"152",3,32,0.502314046477824,NA,2,NA,NA,NA,NA,NA,19
"153",3,33,0.508655949545078,NA,1,NA,NA,NA,NA,NA,20
"154",3,34,0.531982600624613,1,2,1,1,1,1,2242,21
"155",3,35,0.614927264039786,1,3,-1,0,1,1,1737,22
"156",3,36,0.569644549893206,-1,2,-1,1,1,-1,2051,21
"157",3,37,0.483161019848942,NA,1,NA,NA,NA,NA,NA,22
"158",3,38,0.529818199113537,1,3,-1,0,1,1,2268,23
"159",3,39,0.574396013006044,1,1,1,1,1,1,1701,24
"160",3,40,0.622978724568684,NA,3,NA,NA,NA,NA,NA,23
"161",3,41,0.636843316252389,1,3,-1,0,1,1,1594,24
"162",3,42,0.664778644273931,1,1,1,1,1,1,1622,25
"163",3,43,0.686675183020266,NA,2,NA,NA,NA,NA,NA,24
"164",3,44,0.614182372385997,NA,1,NA,NA,NA,NA,NA,25
"165",3,45,0.633677998505634,1,3,-1,0,1,1,1703,26
"166",3,46,0.467653747098843,-1,2,1,0,1,-1,1670,25
"167",3,47,0.466325287625579,1,3,-1,0,1,1,1605,26
"168",3,48,0.505469244693323,-1,2,1,0,1,-1,1596,25
"169",3,49,0.378104394252958,1,1,1,1,1,1,1748,26
"170",3,50,0.291149467083491,NA,2,NA,NA,NA,NA,NA,27
"171",3,51,0.228880285616779,NA,3,NA,NA,NA,NA,NA,28
"172",3,52,0.195987375525111,NA,1,NA,NA,NA,NA,NA,29
"173",3,53,0.211948983922974,-1,3,-1,1,1,-1,1832,28
"174",3,54,0.214775674184248,NA,1,NA,NA,NA,NA,NA,29
"175",3,55,0.436567052727989,NA,2,NA,NA,NA,NA,NA,28
"176",3,56,0.487352130517827,-1,1,1,0,1,-1,1603,27
"177",3,57,0.655115390105699,1,3,-1,0,1,1,2724,28
"178",3,58,0.668663483508083,1,2,1,1,1,1,1629,29
"179",3,59,0.755900704128947,NA,3,NA,NA,NA,NA,NA,28
"180",3,60,0.778374217282237,1,2,1,1,1,1,3843,29
"181",4,1,0.521582095939982,1,1,-1,0,1,1,3184,35
"182",4,2,0.555929670198122,-1,2,1,0,1,-1,3826,34
"183",4,3,0.518995485046954,1,3,-1,0,1,1,3867,35
"184",4,4,0.374822486229473,NA,2,NA,NA,NA,NA,NA,36
"185",4,5,0.5012658773313,NA,1,NA,NA,NA,NA,NA,37
"186",4,6,0.499448577088203,NA,3,NA,NA,NA,NA,NA,36
"187",4,7,0.490607336779084,NA,1,NA,NA,NA,NA,NA,37
"188",4,8,0.535522148404235,1,3,-1,0,1,1,2271,38
"189",4,9,0.455771571523293,NA,2,NA,NA,NA,NA,NA,37
"190",4,10,0.474459241045863,NA,3,NA,NA,NA,NA,NA,38
"191",4,11,0.385549970667852,NA,1,NA,NA,NA,NA,NA,39
"192",4,12,0.309998242598056,NA,2,NA,NA,NA,NA,NA,38
"193",4,13,0.266165516043175,NA,1,NA,NA,NA,NA,NA,39
"194",4,14,0.249110542141823,-1,2,1,0,1,-1,1894,38
"195",4,15,0.28697884461073,1,3,-1,0,1,1,2041,39
"196",4,16,0.224969158058963,-1,2,-1,1,1,-1,2326,38
"197",4,17,0.242061122325645,NA,1,NA,NA,NA,NA,NA,39
"198",4,18,0.188497119062312,NA,3,NA,NA,NA,NA,NA,40
"199",4,19,0.220067869970123,NA,1,NA,NA,NA,NA,NA,41
"200",4,20,0.347530650363635,NA,3,NA,NA,NA,NA,NA,42
"201",4,21,0.426918195791998,NA,3,NA,NA,NA,NA,NA,43
"202",4,22,0.52058920987099,NA,1,NA,NA,NA,NA,NA,44
"203",4,23,0.489238321370167,NA,2,NA,NA,NA,NA,NA,43
"204",4,24,0.370350174906461,NA,1,NA,NA,NA,NA,NA,44
"205",4,25,0.375279177316664,-1,3,-1,1,1,-1,1672,43
"206",4,26,0.296087153387101,-1,2,1,0,1,-1,1991,42
"207",4,27,0.205193507645416,NA,3,NA,NA,NA,NA,NA,43
"208",4,28,0.138978384486846,NA,2,NA,NA,NA,NA,NA,44
"209",4,29,0.141118147978326,NA,1,NA,NA,NA,NA,NA,45
"210",4,30,0.435040873928808,-1,2,1,0,1,-1,2066,44
"211",4,31,0.367969997727974,-1,3,-1,1,1,-1,1956,43
"212",4,32,0.506100892115823,1,1,1,1,1,1,2270,44
"213",4,33,0.528552549183916,NA,3,NA,NA,NA,NA,NA,43
"214",4,34,0.527413179365914,1,1,1,1,1,1,2056,44
"215",4,35,0.595762126129503,1,2,1,1,1,1,2156,45
"216",4,36,0.402027859006562,NA,1,NA,NA,NA,NA,NA,46
"217",4,37,0.419325413167427,-1,3,-1,1,1,-1,2523,45
"218",4,38,0.478767574788561,1,2,1,1,1,1,1855,46
"219",4,39,0.474756336058412,1,3,-1,0,1,1,2137,47
"220",4,40,0.510423155876359,1,2,1,1,1,1,2563,48
"221",4,41,0.553594906575581,NA,2,NA,NA,NA,NA,NA,49
"222",4,42,0.583119957198744,1,3,-1,0,1,1,1978,50
"223",4,43,0.639458112531039,-1,1,1,0,1,-1,1988,49
"224",4,44,0.748432213639863,1,3,-1,0,1,1,1880,50
"225",4,45,0.704761460405299,-1,2,1,0,1,-1,2011,49
"226",4,46,0.780728445958493,NA,1,NA,NA,NA,NA,NA,48
"227",4,47,0.843221355236554,-1,2,1,0,1,-1,1986,47
"228",4,48,0.874725351620743,NA,1,NA,NA,NA,NA,NA,46
"229",4,49,0.821620424890065,1,3,-1,0,1,1,3078,47
"230",4,50,0.834015647091163,1,1,1,1,1,1,2215,48
"231",4,51,0.819033726561365,-1,2,-1,1,1,-1,1845,47
"232",4,52,0.880077721123726,1,3,-1,0,1,1,2087,48
"233",4,53,0.865242012400274,1,2,-1,0,1,1,1801,49
"234",4,54,0.795685776110336,1,3,-1,0,1,1,2058,50
"235",4,55,0.760557720411736,1,1,1,1,1,1,1803,51
"236",4,56,0.715310425057975,NA,3,NA,NA,NA,NA,NA,52
"237",4,57,0.747079488840635,1,2,1,1,1,1,2832,53
"238",4,58,0.73063900119794,-1,1,1,0,1,-1,2216,52
"239",4,59,0.704037150340577,-1,2,1,0,1,-1,2865,51
"240",4,60,0.712878667113975,1,1,1,1,1,1,1889,52
"241",5,1,0.592135293261694,NA,3,NA,NA,NA,NA,NA,26
"242",5,2,0.56296711719343,NA,1,NA,NA,NA,NA,NA,27
"243",5,3,0.46615479736599,1,2,-1,0,1,1,3984,28
"244",5,4,0.467029168931199,1,1,1,1,1,1,2190,29
"245",5,5,0.406364785557512,1,3,-1,0,1,1,2296,30
"246",5,6,0.363196807556619,NA,2,NA,NA,NA,NA,NA,29
"247",5,7,0.36872757711935,NA,3,NA,NA,NA,NA,NA,30
"248",5,8,0.2795301430148,-1,2,1,0,1,-1,1774,29
"249",5,9,0.260674261384267,-1,1,1,0,1,-1,2134,28
"250",5,10,0.293904648270088,-1,2,1,0,1,-1,2295,27
"251",5,11,0.223961355588619,NA,3,NA,NA,NA,NA,NA,28
"252",5,12,0.379968792607482,NA,1,NA,NA,NA,NA,NA,27
"253",5,13,0.298919275250688,-1,3,-1,1,1,-1,2425,26
"254",5,14,0.329925424103734,NA,1,NA,NA,NA,NA,NA,27
"255",5,15,0.305371923527654,NA,2,NA,NA,NA,NA,NA,28
"256",5,16,0.306260463081218,NA,1,NA,NA,NA,NA,NA,29
"257",5,17,0.284527907120607,NA,3,NA,NA,NA,NA,NA,30
"258",5,18,0.396784595431556,NA,2,NA,NA,NA,NA,NA,29
"259",5,19,0.3211003546141,1,3,-1,0,1,1,2144,30
"260",5,20,0.243416743061942,-1,2,-1,1,1,-1,2074,29
"261",5,21,0.270191714805397,1,1,1,1,1,1,2086,30
"262",5,22,0.294197370654639,NA,2,NA,NA,NA,NA,NA,29
"263",5,23,0.346221751820493,NA,3,NA,NA,NA,NA,NA,30
"264",5,24,0.276447478547243,NA,2,NA,NA,NA,NA,NA,31
"265",5,25,0.216963143227515,-1,1,1,0,1,-1,2019,30
"266",5,26,0.155576692007976,NA,3,NA,NA,NA,NA,NA,31
"267",5,27,0.242710402130908,NA,1,NA,NA,NA,NA,NA,32
"268",5,28,0.348436934537228,NA,3,NA,NA,NA,NA,NA,31
"269",5,29,0.513380483916975,-1,2,1,0,1,-1,2148,30
"270",5,30,0.462869954897143,-1,3,-1,1,1,-1,2096,29
"271",5,31,0.47784262270618,NA,1,NA,NA,NA,NA,NA,30
"272",5,32,0.441421631650454,-1,2,1,0,1,-1,2190,29
"273",5,33,0.607565570817319,1,1,1,1,1,1,2402,30
"274",5,34,0.570148077413222,NA,2,NA,NA,NA,NA,NA,31
"275",5,35,0.511716620265656,NA,3,NA,NA,NA,NA,NA,32
"276",5,36,0.589637794599,NA,2,NA,NA,NA,NA,NA,33
"277",5,37,0.609238543520881,-1,1,1,0,1,-1,2291,32
"278",5,38,0.614317348372477,NA,3,NA,NA,NA,NA,NA,31
"279",5,39,0.594325470149819,NA,1,NA,NA,NA,NA,NA,30
"280",5,40,0.553136165129832,NA,3,NA,NA,NA,NA,NA,29
"281",5,41,0.621887652612503,NA,2,NA,NA,NA,NA,NA,30
"282",5,42,0.708893861756988,NA,3,NA,NA,NA,NA,NA,29
"283",5,43,0.814656431224056,1,1,1,1,1,1,2115,30
"284",5,44,0.845341873896963,1,3,1,1,1,1,2040,31
"285",5,45,0.847621703353246,NA,2,NA,NA,NA,NA,NA,32
"286",5,46,0.860198318625168,1,1,1,1,1,1,2193,33
"287",5,47,0.873847178593822,1,2,1,1,1,1,2007,34
"288",5,48,0.817824542185902,1,1,1,1,1,1,2051,35
"289",5,49,0.7945519308434,1,3,-1,0,1,1,2676,36
"290",5,50,0.778846450110427,1,1,1,1,1,1,2154,37
"291",5,51,0.846012433080421,NA,2,NA,NA,NA,NA,NA,36
"292",5,52,0.829047096345331,NA,3,NA,NA,NA,NA,NA,35
"293",5,53,0.801751783282335,1,2,1,1,1,1,2015,36
"294",5,54,0.781638463061543,NA,3,NA,NA,NA,NA,NA,35
"295",5,55,0.776372646708148,1,1,1,1,1,1,2112,36
"296",5,56,0.725825438632857,1,3,-1,0,1,1,2054,37
"297",5,57,0.661003615658718,-1,2,1,0,1,-1,2050,36
"298",5,58,0.77401184813971,NA,1,NA,NA,NA,NA,NA,37
"299",5,59,0.85434319638775,NA,2,NA,NA,NA,NA,NA,36
"300",5,60,0.885055278154191,NA,1,NA,NA,NA,NA,NA,37
"301",6,1,0.475075799366459,NA,3,NA,NA,NA,NA,NA,11
"302",6,2,0.499306374311497,NA,1,NA,NA,NA,NA,NA,12
"303",6,3,0.460792394273118,1,2,-1,0,1,1,1924,13
"304",6,4,0.358518059117522,NA,1,NA,NA,NA,NA,NA,14
"305",6,5,0.403727212528741,-1,3,-1,1,1,-1,1765,13
"306",6,6,0.325410497191677,NA,2,NA,NA,NA,NA,NA,14
"307",6,7,0.258920151811462,1,3,-1,0,1,1,1659,15
"308",6,8,0.197017046630074,1,2,-1,0,1,1,1528,16
"309",6,9,0.162107279048969,NA,1,NA,NA,NA,NA,NA,17
"310",6,10,0.18995873525302,-1,2,-1,1,1,-1,1996,16
"311",6,11,0.260514034918704,NA,3,NA,NA,NA,NA,NA,15
"312",6,12,0.256554385111966,-1,1,1,0,1,-1,2052,14
"313",6,13,0.212173926893105,-1,3,-1,1,1,-1,1925,13
"314",6,14,0.171150144459221,NA,1,NA,NA,NA,NA,NA,14
"315",6,15,0.278003351634778,NA,2,NA,NA,NA,NA,NA,13
"316",6,16,0.285843107686792,NA,1,NA,NA,NA,NA,NA,12
"317",6,17,0.266697179829474,NA,3,NA,NA,NA,NA,NA,13
"318",6,18,0.244662397116469,-1,2,-1,1,1,-1,1933,12
"319",6,19,0.406669390781813,NA,3,NA,NA,NA,NA,NA,13
"320",6,20,0.384805703601297,-1,2,1,0,1,-1,1777,12
"321",6,21,0.484140861135325,1,2,1,1,1,1,2996,13
"322",6,22,0.485387053468367,NA,3,NA,NA,NA,NA,NA,12
"323",6,23,0.47081146372106,NA,1,NA,NA,NA,NA,NA,13
"324",6,24,0.457273280773062,1,3,-1,0,1,1,1942,14
"325",6,25,0.447944277072278,NA,2,NA,NA,NA,NA,NA,15
"326",6,26,0.381903878109567,-1,1,1,0,1,-1,1510,14
"327",6,27,0.459010878822631,NA,2,NA,NA,NA,NA,NA,15
"328",6,28,0.393704057435693,NA,1,NA,NA,NA,NA,NA,16
"329",6,29,0.432410918265458,1,3,-1,0,1,1,2211,17
"330",6,30,0.512740595141578,1,1,1,1,1,1,2234,18
"331",6,31,0.432630665069318,1,2,-1,0,1,1,2092,19
"332",6,32,0.518838594151471,NA,3,NA,NA,NA,NA,NA,20
"333",6,33,0.457418345561809,NA,2,NA,NA,NA,NA,NA,19
"334",6,34,0.531496070259308,NA,3,NA,NA,NA,NA,NA,20
"335",6,35,0.704576603756777,NA,1,NA,NA,NA,NA,NA,19
"336",6,36,0.725272651038343,1,3,-1,0,1,1,2246,20
"337",6,37,0.887475055618423,1,2,-1,0,1,1,2024,21
"338",6,38,0.8021149000188,NA,1,NA,NA,NA,NA,NA,22
"339",6,39,0.835405712935535,NA,2,NA,NA,NA,NA,NA,21
"340",6,40,0.729925264384868,1,1,1,1,1,1,2520,22
"341",6,41,0.78514779375183,1,1,1,1,1,1,1746,23
"342",6,42,0.728209507911928,NA,2,NA,NA,NA,NA,NA,22
"343",6,43,0.722769303847367,NA,3,NA,NA,NA,NA,NA,21
"344",6,44,0.803880693311811,NA,2,NA,NA,NA,NA,NA,20
"345",6,45,0.844774518240636,1,1,1,1,1,1,2085,21
"346",6,46,0.825960042110084,1,3,-1,0,1,1,1904,22
"347",6,47,0.82326668970739,-1,1,-1,1,1,-1,1939,21
"348",6,48,0.898269219957694,NA,3,NA,NA,NA,NA,NA,20
"349",6,49,0.893193735152665,1,2,1,1,1,1,2108,21
"350",6,50,0.719213734251203,NA,3,NA,NA,NA,NA,NA,22
"351",6,51,0.72483118470298,NA,1,NA,NA,NA,NA,NA,21
"352",6,52,0.620938014198267,NA,2,NA,NA,NA,NA,NA,20
"353",6,53,0.643263197075153,1,1,1,1,1,1,1946,21
"354",6,54,0.668844577979374,NA,2,NA,NA,NA,NA,NA,20
"355",6,55,0.779396183110884,1,3,-1,0,1,1,1956,21
"356",6,56,0.752357606829033,1,2,1,1,1,1,1748,22
"357",6,57,0.753374664375032,NA,1,NA,NA,NA,NA,NA,23
"358",6,58,0.721017311717401,-1,3,-1,1,1,-1,2129,22
"359",6,59,0.698979807997692,NA,1,NA,NA,NA,NA,NA,23
"360",6,60,0.586833488070648,NA,3,NA,NA,NA,NA,NA,24
"361",7,1,0.570288412769527,1,3,1,1,1,1,2476,3
"362",7,2,0.482245326064198,-1,1,1,0,1,-1,1874,2
"363",7,3,0.512952972802493,NA,2,NA,NA,NA,NA,NA,3
"364",7,4,0.601373173349731,NA,1,NA,NA,NA,NA,NA,4
"365",7,5,0.596505810515996,NA,3,NA,NA,NA,NA,NA,5
"366",7,6,0.635143571806139,1,2,-1,0,1,1,2281,6
"367",7,7,0.66681973248423,NA,3,NA,NA,NA,NA,NA,5
"368",7,8,0.626570163346811,-1,2,1,0,1,-1,1915,4
"369",7,9,0.624830073190548,NA,1,NA,NA,NA,NA,NA,3
"370",7,10,0.642253716642141,NA,2,NA,NA,NA,NA,NA,4
"371",7,11,0.610891922514014,NA,3,NA,NA,NA,NA,NA,3
"372",7,12,0.629475634395305,NA,1,NA,NA,NA,NA,NA,4
"373",7,13,0.609651486916189,1,3,-1,0,1,1,1899,5
"374",7,14,0.433216442874323,NA,1,NA,NA,NA,NA,NA,6
"375",7,15,0.434050237608458,1,2,1,1,1,1,1879,7
"376",7,16,0.426291392462947,1,1,1,1,1,1,2050,8
"377",7,17,0.283335073315657,NA,3,NA,NA,NA,NA,NA,9
"378",7,18,0.208375073065851,-1,2,1,0,1,-1,1854,8
"379",7,19,0.161077877243681,NA,3,NA,NA,NA,NA,NA,9
"380",7,20,0.203105819477894,-1,2,-1,1,1,-1,2087,8
"381",7,21,0.137263166733556,NA,1,NA,NA,NA,NA,NA,9
"382",7,22,0.101541589815975,NA,2,NA,NA,NA,NA,NA,10
"383",7,23,0.334668652994736,1,3,-1,0,1,1,1856,11
"384",7,24,0.420804554568,-1,2,1,0,1,-1,1857,10
"385",7,25,0.330724147944615,NA,1,NA,NA,NA,NA,NA,11
"386",7,26,0.312813550313797,NA,3,NA,NA,NA,NA,NA,12
"387",7,27,0.32219920616639,1,1,1,1,1,1,1876,13
"388",7,28,0.272702117036256,NA,3,NA,NA,NA,NA,NA,14
"389",7,29,0.317665493035964,-1,2,-1,1,1,-1,1841,13
"390",7,30,0.204087246499351,NA,3,NA,NA,NA,NA,NA,14
"391",7,31,0.166325335127781,1,1,1,1,1,1,1880,15
"392",7,32,0.198533723283446,NA,2,NA,NA,NA,NA,NA,14
"393",7,33,0.135109157783293,NA,1,NA,NA,NA,NA,NA,15
"394",7,34,0.104066847505939,NA,2,NA,NA,NA,NA,NA,16
"395",7,35,0.175980230281973,NA,3,NA,NA,NA,NA,NA,17
"396",7,36,0.246254772473742,NA,2,NA,NA,NA,NA,NA,18
"397",7,37,0.365899970186076,-1,1,1,0,1,-1,1953,17
"398",7,38,0.30916614161399,1,3,-1,0,1,1,1848,18
"399",7,39,0.349950218482204,1,1,1,1,1,1,1912,19
"400",7,40,0.446298190794984,-1,3,-1,1,1,-1,1865,18
"401",7,41,0.516886098999637,NA,2,NA,NA,NA,NA,NA,17
"402",7,42,0.619314463657766,NA,3,NA,NA,NA,NA,NA,18
"403",7,43,0.73443087055405,NA,1,NA,NA,NA,NA,NA,19
"404",7,44,0.696205984372568,-1,3,-1,1,1,-1,1868,18
"405",7,45,0.717492303257495,-1,2,1,0,1,-1,1827,17
"406",7,46,0.764439336500126,1,1,1,1,1,1,1839,18
"407",7,47,0.753649474587551,NA,2,NA,NA,NA,NA,NA,19
"408",7,48,0.778094634732972,NA,1,NA,NA,NA,NA,NA,18
"409",7,49,0.729181161879538,1,3,-1,0,1,1,1832,19
"410",7,50,0.701416028622397,1,1,1,1,1,1,1897,20
"411",7,51,0.689201785099484,NA,2,NA,NA,NA,NA,NA,19
"412",7,52,0.648521750313625,NA,3,NA,NA,NA,NA,NA,20
"413",7,53,0.745238798890121,NA,2,NA,NA,NA,NA,NA,19
"414",7,54,0.755636449476823,1,3,-1,0,1,1,1876,20
"415",7,55,0.820709938159121,1,1,1,1,1,1,1853,21
"416",7,56,0.857908427342936,1,3,-1,0,1,1,1839,22
"417",7,57,0.897416952716459,NA,2,NA,NA,NA,NA,NA,21
"418",7,58,0.829525691571492,1,1,1,1,1,1,1845,22
"419",7,59,0.772330778540361,NA,2,NA,NA,NA,NA,NA,21
"420",7,60,0.773278973941141,NA,1,NA,NA,NA,NA,NA,20
"421",8,1,0.5794259570539,1,2,-1,0,1,1,3831,20
"422",8,2,0.582178093286407,1,3,-1,0,1,1,2294,21
"423",8,3,0.69287355692893,1,1,1,1,1,1,4235,22
"424",8,4,0.721826228419277,1,3,-1,0,1,1,3703,23
"425",8,5,0.77360280135785,NA,2,NA,NA,NA,NA,NA,22
"426",8,6,0.687634978969653,1,1,1,1,1,1,1859,23
"427",8,7,0.675028471910225,NA,2,NA,NA,NA,NA,NA,24
"428",8,8,0.559331325846638,NA,1,NA,NA,NA,NA,NA,25
"429",8,9,0.436569699500514,NA,3,NA,NA,NA,NA,NA,24
"430",8,10,0.517383442782714,NA,1,NA,NA,NA,NA,NA,25
"431",8,11,0.417111713954215,1,2,1,1,1,1,2251,26
"432",8,12,0.362065461627529,-1,3,1,0,1,-1,2293,25
"433",8,13,0.279827196726066,NA,2,NA,NA,NA,NA,NA,26
"434",8,14,0.359376840847575,NA,3,NA,NA,NA,NA,NA,27
"435",8,15,0.420536755651496,-1,1,1,0,1,-1,1841,26
"436",8,16,0.475976178815854,NA,3,NA,NA,NA,NA,NA,27
"437",8,17,0.498858826856712,NA,2,NA,NA,NA,NA,NA,26
"438",8,18,0.435356924577468,1,1,1,1,1,1,2574,27
"439",8,19,0.505927600285565,NA,2,NA,NA,NA,NA,NA,26
"440",8,20,0.519894763411269,NA,1,NA,NA,NA,NA,NA,25
"441",8,21,0.392651798108887,NA,1,NA,NA,NA,NA,NA,26
"442",8,22,0.373822524781597,NA,2,NA,NA,NA,NA,NA,25
"443",8,23,0.395912898189184,NA,3,NA,NA,NA,NA,NA,24
"444",8,24,0.281517355952728,-1,2,-1,1,1,-1,1859,23
"445",8,25,0.333585652525685,-1,1,-1,1,1,-1,2875,22
"446",8,26,0.39901855906344,-1,3,-1,1,1,-1,2401,21
"447",8,27,0.397061811999856,-1,1,1,0,1,-1,1637,20
"448",8,28,0.40136322459331,NA,3,NA,NA,NA,NA,NA,21
"449",8,29,0.333137975337891,-1,2,-1,1,1,-1,2798,20
"450",8,30,0.283895468915048,NA,3,NA,NA,NA,NA,NA,19
"451",8,31,0.297415235617644,NA,1,NA,NA,NA,NA,NA,20
"452",8,32,0.374960363110238,-1,2,-1,1,1,-1,1922,19
"453",8,33,0.463983900508383,1,1,1,1,1,1,2126,20
"454",8,34,0.421951669821283,NA,2,NA,NA,NA,NA,NA,21
"455",8,35,0.472148528310079,NA,3,NA,NA,NA,NA,NA,20
"456",8,36,0.337013583571212,-1,2,1,0,1,-1,2406,19
"457",8,37,0.368782877684209,NA,1,NA,NA,NA,NA,NA,20
"458",8,38,0.37335415912817,NA,3,NA,NA,NA,NA,NA,21
"459",8,39,0.446594660032009,-1,1,1,0,1,-1,2318,20
"460",8,40,0.526528612471756,NA,3,NA,NA,NA,NA,NA,21
"461",8,41,0.622600127757657,1,3,-1,0,1,1,1878,22
"462",8,42,0.628930998144585,NA,1,NA,NA,NA,NA,NA,23
"463",8,43,0.578573205326453,NA,2,NA,NA,NA,NA,NA,22
"464",8,44,0.635216712153792,-1,1,1,0,1,-1,1783,21
"465",8,45,0.612189561601611,-1,3,1,0,1,-1,2803,20
"466",8,46,0.667198249655884,NA,2,NA,NA,NA,NA,NA,19
"467",8,47,0.731490496622191,1,3,-1,0,1,1,1649,20
"468",8,48,0.619926061686956,-1,2,1,0,1,-1,1859,19
"469",8,49,0.538080722216003,NA,1,NA,NA,NA,NA,NA,20
"470",8,50,0.64330951143557,1,2,-1,0,1,1,1900,21
"471",8,51,0.759388701270958,1,3,-1,0,1,1,2660,22
"472",8,52,0.645715328337121,NA,1,NA,NA,NA,NA,NA,23
"473",8,53,0.672203492494465,1,3,-1,0,1,1,2356,24
"474",8,54,0.715760303622836,NA,1,NA,NA,NA,NA,NA,25
"475",8,55,0.745468527779741,1,2,1,1,1,1,2452,26
"476",8,56,0.801307095749508,1,1,1,1,1,1,2918,27
"477",8,57,0.731362255806424,NA,3,NA,NA,NA,NA,NA,26
"478",8,58,0.795602786487614,1,2,-1,0,1,1,2444,27
"479",8,59,0.737070440701941,NA,3,NA,NA,NA,NA,NA,28
"480",8,60,0.704675470750261,NA,2,NA,NA,NA,NA,NA,27
"481",9,1,0.567240020865574,-1,2,1,0,1,-1,1539,19
"482",9,2,0.514433369539882,NA,3,NA,NA,NA,NA,NA,18
"483",9,3,0.566857636282539,1,1,1,1,1,1,2831,19
"484",9,4,0.489401353039029,NA,3,NA,NA,NA,NA,NA,20
"485",9,5,0.479857252141525,NA,2,NA,NA,NA,NA,NA,21
"486",9,6,0.411876990175876,NA,1,NA,NA,NA,NA,NA,22
"487",9,7,0.431598295125591,NA,2,NA,NA,NA,NA,NA,23
"488",9,8,0.430207125479751,NA,1,NA,NA,NA,NA,NA,24
"489",9,9,0.433123000203885,NA,3,NA,NA,NA,NA,NA,25
"490",9,10,0.345014131668398,NA,1,NA,NA,NA,NA,NA,26
"491",9,11,0.370037297407479,NA,2,NA,NA,NA,NA,NA,27
"492",9,12,0.453949636968726,NA,3,NA,NA,NA,NA,NA,28
"493",9,13,0.541300152895038,NA,2,NA,NA,NA,NA,NA,29
"494",9,14,0.480422494629098,NA,3,NA,NA,NA,NA,NA,28
"495",9,15,0.447061675789524,1,1,1,1,1,1,2801,29
"496",9,16,0.449024330724301,1,3,-1,0,1,1,1944,30
"497",9,17,0.480251085042977,-1,2,-1,1,1,-1,2187,29
"498",9,18,0.557732318127007,NA,1,NA,NA,NA,NA,NA,30
"499",9,19,0.551546906565615,NA,2,NA,NA,NA,NA,NA,29
"500",9,20,0.614587449131705,1,1,1,1,1,1,2213,30
"501",9,21,0.480551644035216,1,1,1,1,1,1,2201,31
"502",9,22,0.602659048609133,-1,2,1,0,1,-1,2640,30
"503",9,23,0.506221939397192,NA,3,NA,NA,NA,NA,NA,29
"504",9,24,0.499028521425382,NA,2,NA,NA,NA,NA,NA,28
"505",9,25,0.554612783107703,-1,1,1,0,1,-1,2307,27
"506",9,26,0.480609149145974,1,3,-1,0,1,1,2143,28
"507",9,27,0.414722220956443,-1,1,1,0,1,-1,2202,27
"508",9,28,0.375222500152776,NA,3,NA,NA,NA,NA,NA,28
"509",9,29,0.329610680611323,-1,2,1,0,1,-1,2119,27
"510",9,30,0.270071520171587,-1,3,1,0,1,-1,3846,26
"511",9,31,0.286345002722697,NA,1,NA,NA,NA,NA,NA,27
"512",9,32,0.355683761040154,NA,2,NA,NA,NA,NA,NA,26
"513",9,33,0.327388146455884,1,1,1,1,1,1,2144,27
"514",9,34,0.27758064284454,-1,2,-1,1,1,-1,2094,26
"515",9,35,0.316612080427637,NA,3,NA,NA,NA,NA,NA,27
"516",9,36,0.280703683470682,NA,2,NA,NA,NA,NA,NA,28
"517",9,37,0.17269918374559,NA,1,NA,NA,NA,NA,NA,29
"518",9,38,0.130298261571029,NA,3,NA,NA,NA,NA,NA,28
"519",9,39,0.229358713431246,NA,1,NA,NA,NA,NA,NA,29
"520",9,40,0.193432788354012,-1,3,-1,1,1,-1,2230,28
"521",9,41,0.279524249055983,NA,3,NA,NA,NA,NA,NA,29
"522",9,42,0.265996548592127,NA,1,NA,NA,NA,NA,NA,30
"523",9,43,0.229603583861486,NA,2,NA,NA,NA,NA,NA,31
"524",9,44,0.20147143386202,NA,1,NA,NA,NA,NA,NA,32
"525",9,45,0.18924252280241,NA,3,NA,NA,NA,NA,NA,33
"526",9,46,0.305001737911108,-1,2,1,0,1,-1,2585,32
"527",9,47,0.449740842857308,NA,3,NA,NA,NA,NA,NA,33
"528",9,48,0.593162274643446,-1,2,1,0,1,-1,2272,32
"529",9,49,0.564649585171783,NA,1,NA,NA,NA,NA,NA,31
"530",9,50,0.499928938895457,-1,2,1,0,1,-1,2234,30
"531",9,51,0.492428887127183,NA,3,NA,NA,NA,NA,NA,31
"532",9,52,0.478753072676945,NA,1,NA,NA,NA,NA,NA,30
"533",9,53,0.623069716239699,-1,3,-1,1,1,-1,2141,29
"534",9,54,0.686729878872224,NA,1,NA,NA,NA,NA,NA,28
"535",9,55,0.648855003623395,NA,2,NA,NA,NA,NA,NA,29
"536",9,56,0.738199203094014,1,1,1,1,1,1,2048,30
"537",9,57,0.751134600524524,NA,3,NA,NA,NA,NA,NA,31
"538",9,58,0.859248373932238,NA,2,NA,NA,NA,NA,NA,30
"539",9,59,0.720037294595724,1,3,-1,0,1,1,2000,31
"540",9,60,0.771981449815555,-1,2,-1,1,1,-1,2149,30
"541",11,1,0.497778735682368,NA,2,NA,NA,NA,NA,NA,23
"542",11,2,0.550470402657601,NA,3,NA,NA,NA,NA,NA,24
"543",11,3,0.581872310852024,1,1,1,1,1,1,1851,25
"544",11,4,0.544749545669546,NA,3,NA,NA,NA,NA,NA,24
"545",11,5,0.705806224397748,-1,2,1,0,1,-1,1946,23
"546",11,6,0.702537719146785,1,1,1,1,1,1,1821,24
"547",11,7,0.707990607438065,NA,2,NA,NA,NA,NA,NA,23
"548",11,8,0.620299037540644,1,1,1,1,1,1,1810,24
"549",11,9,0.584195304525311,NA,3,NA,NA,NA,NA,NA,25
"550",11,10,0.443679597637381,NA,1,NA,NA,NA,NA,NA,24
"551",11,11,0.53432093410264,NA,2,NA,NA,NA,NA,NA,25
"552",11,12,0.493802308416038,-1,3,-1,1,1,-1,2236,24
"553",11,13,0.468241081425534,NA,2,NA,NA,NA,NA,NA,23
"554",11,14,0.490902117098152,1,3,-1,0,1,1,1678,24
"555",11,15,0.633923425499984,NA,1,NA,NA,NA,NA,NA,23
"556",11,16,0.73608017557459,1,3,-1,0,1,1,1874,24
"557",11,17,0.694772928967505,1,2,-1,0,1,1,1793,25
"558",11,18,0.765614069991863,NA,1,NA,NA,NA,NA,NA,26
"559",11,19,0.790871594020171,NA,2,NA,NA,NA,NA,NA,27
"560",11,20,0.738460296916796,1,1,1,1,1,1,2028,28
"561",11,21,0.762401810304587,1,1,1,1,1,1,1745,29
"562",11,22,0.794203147072504,1,2,-1,0,1,1,1740,30
"563",11,23,0.806553067738397,1,3,-1,0,1,1,1740,31
"564",11,24,0.813339682445173,NA,2,NA,NA,NA,NA,NA,30
"565",11,25,0.659271801352974,1,1,1,1,1,1,1589,31
"566",11,26,0.528294863404796,-1,3,1,0,1,-1,1744,30
"567",11,27,0.449843366021417,NA,1,NA,NA,NA,NA,NA,29
"568",11,28,0.322030754005206,-1,3,1,0,1,-1,1736,28
"569",11,29,0.348082446786556,1,2,1,1,1,1,1739,29
"570",11,30,0.414396325631309,-1,3,-1,1,1,-1,1815,28
"571",11,31,0.358175616239217,NA,1,NA,NA,NA,NA,NA,29
"572",11,32,0.252814929965471,NA,2,NA,NA,NA,NA,NA,28
"573",11,33,0.28177021132608,NA,1,NA,NA,NA,NA,NA,29
"574",11,34,0.222436085719022,1,2,1,1,1,1,1846,30
"575",11,35,0.199450967152901,-1,3,1,0,1,-1,1780,29
"576",11,36,0.174537245645527,-1,2,1,0,1,-1,1740,28
"577",11,37,0.219685393429146,NA,1,NA,NA,NA,NA,NA,27
"578",11,38,0.18168181673019,NA,3,NA,NA,NA,NA,NA,26
"579",11,39,0.170957386092153,NA,1,NA,NA,NA,NA,NA,27
"580",11,40,0.137454038771701,NA,3,NA,NA,NA,NA,NA,28
"581",11,41,0.12650045077797,NA,3,NA,NA,NA,NA,NA,29
"582",11,42,0.141442536397246,-1,1,1,0,1,-1,1509,28
"583",11,43,0.121888035815813,NA,2,NA,NA,NA,NA,NA,29
"584",11,44,0.103419873662349,NA,1,NA,NA,NA,NA,NA,30
"585",11,45,0.134531609619408,NA,3,NA,NA,NA,NA,NA,31
"586",11,46,0.289235371891757,NA,2,NA,NA,NA,NA,NA,32
"587",11,47,0.328112651874105,NA,3,NA,NA,NA,NA,NA,31
"588",11,48,0.467019589239902,NA,2,NA,NA,NA,NA,NA,30
"589",11,49,0.571977698520088,1,1,1,1,1,1,1981,31
"590",11,50,0.532828780195262,1,2,1,1,1,1,1809,32
"591",11,51,0.509189807784541,-1,3,-1,1,1,-1,1767,31
"592",11,52,0.529957563266329,1,1,1,1,1,1,1724,32
"593",11,53,0.54803783047322,1,3,-1,0,1,1,1757,33
"594",11,54,0.494210917701719,1,1,1,1,1,1,1756,34
"595",11,55,0.451311905209536,-1,2,-1,1,1,-1,1786,33
"596",11,56,0.509782180417021,NA,1,NA,NA,NA,NA,NA,34
"597",11,57,0.443396696731651,NA,3,NA,NA,NA,NA,NA,33
"598",11,58,0.419748182056268,-1,2,1,0,1,-1,2008,32
"599",11,59,0.317841883792654,NA,3,NA,NA,NA,NA,NA,33
"600",11,60,0.439707837737308,NA,2,NA,NA,NA,NA,NA,32
"601",12,1,0.442180910985917,1,3,-1,0,1,1,3911,20
"602",12,2,0.370677083599917,NA,1,NA,NA,NA,NA,NA,19
"603",12,3,0.402939845025542,NA,2,NA,NA,NA,NA,NA,18
"604",12,4,0.459543647618735,1,1,1,1,1,1,1818,19
"605",12,5,0.553006425439295,NA,3,NA,NA,NA,NA,NA,20
"606",12,6,0.50420738279877,1,2,1,1,1,1,1873,21
"607",12,7,0.566521248006394,-1,3,-1,1,1,-1,1852,20
"608",12,8,0.610058784913045,NA,2,NA,NA,NA,NA,NA,19
"609",12,9,0.482685415498354,NA,1,NA,NA,NA,NA,NA,20
"610",12,10,0.430883632794228,NA,2,NA,NA,NA,NA,NA,19
"611",12,11,0.459024516035121,1,3,-1,0,1,1,2418,20
"612",12,12,0.537934943539167,NA,1,NA,NA,NA,NA,NA,21
"613",12,13,0.447750355338103,NA,3,NA,NA,NA,NA,NA,22
"614",12,14,0.581369908159332,NA,1,NA,NA,NA,NA,NA,23
"615",12,15,0.479523350870546,1,2,1,1,1,1,1797,24
"616",12,16,0.462619606252915,1,1,1,1,1,1,1716,25
"617",12,17,0.340619733121131,1,3,-1,0,1,1,1816,26
"618",12,18,0.358313402374276,NA,2,NA,NA,NA,NA,NA,27
"619",12,19,0.51807137398346,1,3,-1,0,1,1,1762,28
"620",12,20,0.519078595559842,1,2,1,1,1,1,1741,29
"621",12,21,0.46593661266688,1,2,1,1,1,1,1808,30
"622",12,22,0.551265555469496,1,3,-1,0,1,1,2031,31
"623",12,23,0.527447322072453,1,1,1,1,1,1,1785,32
"624",12,24,0.602399372294301,NA,3,NA,NA,NA,NA,NA,31
"625",12,25,0.702653752940275,-1,2,1,0,1,-1,1738,30
"626",12,26,0.630954967565193,NA,1,NA,NA,NA,NA,NA,29
"627",12,27,0.693834468130445,NA,2,NA,NA,NA,NA,NA,28
"628",12,28,0.801476245428782,NA,1,NA,NA,NA,NA,NA,29
"629",12,29,0.714239558549611,-1,3,-1,1,1,-1,1623,28
"630",12,30,0.687555829899153,NA,1,NA,NA,NA,NA,NA,29
"631",12,31,0.699293402740109,NA,2,NA,NA,NA,NA,NA,28
"632",12,32,0.771448059835986,1,3,-1,0,1,1,1735,29
"633",12,33,0.743328563368159,1,2,-1,0,1,1,2440,30
"634",12,34,0.610013603813189,1,3,-1,0,1,1,1768,31
"635",12,35,0.700960150532722,NA,1,NA,NA,NA,NA,NA,32
"636",12,36,0.745488702631305,NA,3,NA,NA,NA,NA,NA,31
"637",12,37,0.795979036027936,NA,2,NA,NA,NA,NA,NA,30
"638",12,38,0.869494168237692,1,1,1,1,1,1,1533,31
"639",12,39,0.859350479439505,1,2,-1,0,1,1,1719,32
"640",12,40,0.89615512683823,NA,1,NA,NA,NA,NA,NA,31
"641",12,41,0.824199795056468,1,1,1,1,1,1,1583,32
"642",12,42,0.815032748597552,-1,2,-1,1,1,-1,2309,31
"643",12,43,0.885803753881698,1,3,-1,0,1,1,1755,32
"644",12,44,0.884324939839182,1,2,1,1,1,1,1776,33
"645",12,45,0.874079082622315,NA,1,NA,NA,NA,NA,NA,32
"646",12,46,0.573160582042186,NA,3,NA,NA,NA,NA,NA,33
"647",12,47,0.61986599067632,NA,1,NA,NA,NA,NA,NA,34
"648",12,48,0.453039011738191,NA,3,NA,NA,NA,NA,NA,33
"649",12,49,0.436857808735791,NA,2,NA,NA,NA,NA,NA,34
"650",12,50,0.451341312272167,NA,3,NA,NA,NA,NA,NA,35
"651",12,51,0.308698381556868,-1,1,1,0,1,-1,1584,34
"652",12,52,0.317279303839075,-1,2,1,0,1,-1,1527,33
"653",12,53,0.243213767686099,1,1,1,1,1,1,2138,34
"654",12,54,0.154337331830144,-1,2,1,0,1,-1,1710,33
"655",12,55,0.130367920470933,NA,3,NA,NA,NA,NA,NA,34
"656",12,56,0.179546708135009,-1,2,1,0,1,-1,1753,33
"657",12,57,0.214302630173322,NA,1,NA,NA,NA,NA,NA,34
"658",12,58,0.188516421790439,-1,3,-1,1,1,-1,2039,33
"659",12,59,0.127240951485796,NA,1,NA,NA,NA,NA,NA,34
"660",12,60,0.134023828801209,NA,3,NA,NA,NA,NA,NA,33
"661",13,1,0.407323386752978,NA,2,NA,NA,NA,NA,NA,-4
"662",13,2,0.373035042550967,-1,3,-1,1,1,-1,3750,-5
"663",13,3,0.222469208411688,-1,1,1,0,1,-1,3079,-6
"664",13,4,0.233570416915325,NA,3,NA,NA,NA,NA,NA,-5
"665",13,5,0.141154076115575,-1,2,1,0,1,-1,2592,-6
"666",13,6,0.254396599318923,NA,1,NA,NA,NA,NA,NA,-7
"667",13,7,0.33488076210541,1,2,1,1,1,1,3117,-6
"668",13,8,0.340431430622645,1,1,1,1,1,1,2560,-5
"669",13,9,0.380591230099609,1,3,-1,0,1,1,2839,-4
"670",13,10,0.484236256754562,NA,1,NA,NA,NA,NA,NA,-3
"671",13,11,0.503314468807009,NA,2,NA,NA,NA,NA,NA,-4
"672",13,12,0.534538805242657,NA,3,NA,NA,NA,NA,NA,-3
"673",13,13,0.465222098198653,NA,2,NA,NA,NA,NA,NA,-2
"674",13,14,0.424182447380369,-1,3,-1,1,1,-1,2438,-3
"675",13,15,0.640637387627423,-1,1,1,0,1,-1,2041,-4
"676",13,16,0.719168254233364,1,3,-1,0,1,1,2296,-3
"677",13,17,0.675785660369964,1,2,1,1,1,1,2054,-2
"678",13,18,0.754334788496596,-1,1,-1,1,1,-1,2288,-3
"679",13,19,0.671344485825365,1,2,1,1,1,1,2281,-2
"680",13,20,0.794932879976887,NA,1,NA,NA,NA,NA,NA,-1
"681",13,21,0.772327788367786,1,1,1,1,1,1,2192,0
"682",13,22,0.82282472601158,-1,2,1,0,1,-1,2086,-1
"683",13,23,0.793356738010303,NA,3,NA,NA,NA,NA,NA,-2
"684",13,24,0.672345656719458,1,2,1,1,1,1,2455,-1
"685",13,25,0.582210498222788,1,1,1,1,1,1,4606,0
"686",13,26,0.569406754403607,-1,3,-1,1,1,-1,2208,-1
"687",13,27,0.57446595895417,NA,1,NA,NA,NA,NA,NA,0
"688",13,28,0.436632300169425,NA,3,NA,NA,NA,NA,NA,1
"689",13,29,0.414895713888367,NA,2,NA,NA,NA,NA,NA,2
"690",13,30,0.303850534640697,NA,3,NA,NA,NA,NA,NA,1
"691",13,31,0.246589644994626,NA,1,NA,NA,NA,NA,NA,2
"692",13,32,0.239932886005128,-1,2,1,0,1,-1,2399,1
"693",13,33,0.323632423379612,NA,1,NA,NA,NA,NA,NA,2
"694",13,34,0.33466398467893,NA,2,NA,NA,NA,NA,NA,3
"695",13,35,0.327666193689873,NA,3,NA,NA,NA,NA,NA,4
"696",13,36,0.318515844894246,NA,2,NA,NA,NA,NA,NA,5
"697",13,37,0.223943040218155,NA,1,NA,NA,NA,NA,NA,6
"698",13,38,0.135672102783858,-1,3,1,0,1,-1,2130,5
"699",13,39,0.176687393914422,NA,1,NA,NA,NA,NA,NA,6
"700",13,40,0.128469254082669,-1,3,1,0,1,-1,1729,5
"701",13,41,0.162968692990271,-1,3,1,0,1,-1,1609,4
"702",13,42,0.186669818912972,NA,1,NA,NA,NA,NA,NA,5
"703",13,43,0.214706874665549,NA,2,NA,NA,NA,NA,NA,6
"704",13,44,0.297842715773394,-1,1,1,0,1,-1,2200,5
"705",13,45,0.411149159763424,1,3,-1,0,1,1,2128,6
"706",13,46,0.413320684951168,-1,2,-1,1,1,-1,2144,5
"707",13,47,0.595091029660009,1,3,-1,0,1,1,1688,6
"708",13,48,0.689783596371993,1,2,1,1,1,1,2038,7
"709",13,49,0.616956577470612,NA,1,NA,NA,NA,NA,NA,8
"710",13,50,0.595338572452989,NA,2,NA,NA,NA,NA,NA,7
"711",13,51,0.535552096750384,NA,3,NA,NA,NA,NA,NA,8
"712",13,52,0.59922503318566,NA,1,NA,NA,NA,NA,NA,7
"713",13,53,0.557449910280372,-1,3,1,0,1,-1,2730,6
"714",13,54,0.528244901907252,NA,1,NA,NA,NA,NA,NA,7
"715",13,55,0.547266167817999,NA,2,NA,NA,NA,NA,NA,6
"716",13,56,0.554356584584299,1,1,1,1,1,1,2239,7
"717",13,57,0.489817143115143,1,3,-1,0,1,1,2025,8
"718",13,58,0.479863938900957,-1,2,1,0,1,-1,2190,7
"719",13,59,0.580596036279745,-1,3,-1,1,1,-1,2257,6
"720",13,60,0.607224576038442,1,2,1,1,1,1,1952,7
"721",14,1,0.50592618570663,NA,1,NA,NA,NA,NA,NA,15
"722",14,2,0.474755728265816,NA,2,NA,NA,NA,NA,NA,14
"723",14,3,0.374860929980074,NA,3,NA,NA,NA,NA,NA,13
"724",14,4,0.450559960362406,NA,2,NA,NA,NA,NA,NA,12
"725",14,5,0.421286091946726,NA,1,NA,NA,NA,NA,NA,13
"726",14,6,0.449871046830295,NA,3,NA,NA,NA,NA,NA,14
"727",14,7,0.530860325103603,NA,1,NA,NA,NA,NA,NA,13
"728",14,8,0.457435124258161,1,3,-1,0,1,1,2550,14
"729",14,9,0.501359600893439,1,2,1,1,1,1,1786,15
"730",14,10,0.530109086832819,1,3,-1,0,1,1,1761,16
"731",14,11,0.525713007351984,1,1,1,1,1,1,1796,17
"732",14,12,0.45498436560696,1,2,-1,0,1,1,2752,18
"733",14,13,0.436257745144975,1,1,1,1,1,1,1784,19
"734",14,14,0.476255114299098,-1,2,-1,1,1,-1,1803,18
"735",14,15,0.479216494253704,1,3,-1,0,1,1,2403,19
"736",14,16,0.434891531106583,-1,2,1,0,1,-1,2033,18
"737",14,17,0.430084868883793,1,1,1,1,1,1,1791,19
"738",14,18,0.493062475302254,NA,3,NA,NA,NA,NA,NA,20
"739",14,19,0.56718823418702,1,1,1,1,1,1,1796,21
"740",14,20,0.61416145736129,NA,3,NA,NA,NA,NA,NA,20
"741",14,21,0.69582935702853,1,2,-1,0,1,1,2673,21
"742",14,22,0.729692727704168,NA,3,NA,NA,NA,NA,NA,20
"743",14,23,0.6650961026373,1,1,1,1,1,1,1796,21
"744",14,24,0.602982280978382,1,3,-1,0,1,1,1782,22
"745",14,25,0.72719291644206,1,2,1,1,1,1,1792,23
"746",14,26,0.775249852265979,1,1,1,1,1,1,1672,24
"747",14,27,0.827740475968387,1,2,1,1,1,1,1826,25
"748",14,28,0.837404154685971,1,1,1,1,1,1,1822,26
"749",14,29,0.849481485330897,-1,3,1,0,1,-1,2163,25
"750",14,30,0.827814870362647,NA,1,NA,NA,NA,NA,NA,24
"751",14,31,0.828721933099548,NA,2,NA,NA,NA,NA,NA,23
"752",14,32,0.747184637704324,1,3,-1,0,1,1,1819,24
"753",14,33,0.790544728421919,1,2,1,1,1,1,1794,25
"754",14,34,0.879826046090234,1,3,-1,0,1,1,1777,26
"755",14,35,0.857143733190368,NA,1,NA,NA,NA,NA,NA,25
"756",14,36,0.861353340089224,1,3,-1,0,1,1,1780,26
"757",14,37,0.797697675223956,-1,2,1,0,1,-1,1773,25
"758",14,38,0.543729159285516,-1,1,1,0,1,-1,1828,24
"759",14,39,0.552095331960145,NA,2,NA,NA,NA,NA,NA,25
"760",14,40,0.55012941513727,1,1,1,1,1,1,1790,26
"761",14,41,0.455252435710122,-1,3,-1,1,1,-1,1779,25
"762",14,42,0.452522708005766,-1,1,1,0,1,-1,2342,24
"763",14,43,0.424436168745246,NA,2,NA,NA,NA,NA,NA,23
"764",14,44,0.406663030752443,1,1,1,1,1,1,2113,24
"765",14,45,0.362924579006487,NA,3,NA,NA,NA,NA,NA,25
"766",14,46,0.334603404827761,NA,2,NA,NA,NA,NA,NA,24
"767",14,47,0.463489276399256,NA,3,NA,NA,NA,NA,NA,25
"768",14,48,0.393637405549286,NA,2,NA,NA,NA,NA,NA,26
"769",14,49,0.32973611524474,1,1,1,1,1,1,1605,27
"770",14,50,0.355717653032793,-1,2,-1,1,1,-1,2391,26
"771",14,51,0.3368041089773,NA,3,NA,NA,NA,NA,NA,27
"772",14,52,0.300607657986675,NA,1,NA,NA,NA,NA,NA,28
"773",14,53,0.1677679208779,NA,3,NA,NA,NA,NA,NA,29
"774",14,54,0.154932746572915,NA,1,NA,NA,NA,NA,NA,30
"775",14,55,0.130388927455713,NA,2,NA,NA,NA,NA,NA,31
"776",14,56,0.219635143715481,NA,1,NA,NA,NA,NA,NA,32
"777",14,57,0.330682959990163,NA,3,NA,NA,NA,NA,NA,31
"778",14,58,0.334464649649553,NA,2,NA,NA,NA,NA,NA,30
"779",14,59,0.333671199263083,1,3,-1,0,1,1,1819,31
"780",14,60,0.402262470373365,1,2,1,1,1,1,1774,32
"781",15,1,0.431302470993251,NA,3,NA,NA,NA,NA,NA,37
"782",15,2,0.509095091744169,1,1,1,1,1,1,2175,38
"783",15,3,0.597972959527519,-1,2,-1,1,1,-1,2003,37
"784",15,4,0.690195289420109,1,1,1,1,1,1,1817,38
"785",15,5,0.668837931764321,NA,3,NA,NA,NA,NA,NA,39
"786",15,6,0.733673558540366,NA,2,NA,NA,NA,NA,NA,38
"787",15,7,0.75302110952643,1,3,-1,0,1,1,2007,39
"788",15,8,0.732628310233012,NA,2,NA,NA,NA,NA,NA,38
"789",15,9,0.781251050319554,NA,1,NA,NA,NA,NA,NA,39
"790",15,10,0.661559872865912,-1,2,1,0,1,-1,1728,38
"791",15,11,0.707716060699905,1,3,-1,0,1,1,1572,39
"792",15,12,0.749294695826872,1,1,1,1,1,1,1878,40
"793",15,13,0.79263114023455,1,3,-1,0,1,1,1892,41
"794",15,14,0.873534394761992,1,1,1,1,1,1,1920,42
"795",15,15,0.877935645927838,1,2,1,1,1,1,1881,43
"796",15,16,0.887246959427486,NA,1,NA,NA,NA,NA,NA,44
"797",15,17,0.815432511425511,NA,3,NA,NA,NA,NA,NA,45
"798",15,18,0.842729344808899,NA,2,NA,NA,NA,NA,NA,44
"799",15,19,0.883476764735243,1,3,-1,0,1,1,1829,45
"800",15,20,0.751588471822956,-1,2,1,0,1,-1,1582,44
"801",15,21,0.765663944386965,-1,2,1,0,1,-1,2092,43
"802",15,22,0.856048279204254,1,3,-1,0,1,1,1716,44
"803",15,23,0.898744442478262,NA,1,NA,NA,NA,NA,NA,43
"804",15,24,0.871669426064039,1,3,-1,0,1,1,1513,44
"805",15,25,0.824034977467152,1,2,1,1,1,1,1586,45
"806",15,26,0.78115851876117,1,1,1,1,1,1,1544,46
"807",15,27,0.797423348205779,1,2,1,1,1,1,1897,47
"808",15,28,0.870517791941216,NA,1,NA,NA,NA,NA,NA,46
"809",15,29,0.710738282904745,NA,3,NA,NA,NA,NA,NA,45
"810",15,30,0.635255179742326,NA,1,NA,NA,NA,NA,NA,46
"811",15,31,0.543544797280178,NA,2,NA,NA,NA,NA,NA,47
"812",15,32,0.602804141771899,NA,3,NA,NA,NA,NA,NA,46
"813",15,33,0.544071920288583,-1,2,-1,1,1,-1,1644,45
"814",15,34,0.508987731802433,NA,3,NA,NA,NA,NA,NA,44
"815",15,35,0.516193391456869,1,1,1,1,1,1,1701,45
"816",15,36,0.340771516000833,1,3,-1,0,1,1,1937,46
"817",15,37,0.21907142608312,-1,2,1,0,1,-1,1793,45
"818",15,38,0.213871724617319,NA,1,NA,NA,NA,NA,NA,46
"819",15,39,0.269256116250797,-1,2,1,0,1,-1,1989,45
"820",15,40,0.154689882730563,NA,1,NA,NA,NA,NA,NA,46
"821",15,41,0.142605978989039,NA,1,NA,NA,NA,NA,NA,47
"822",15,42,0.167278081394263,-1,2,1,0,1,-1,1964,46
"823",15,43,0.291572402907275,NA,3,NA,NA,NA,NA,NA,47
"824",15,44,0.276644772886909,NA,2,NA,NA,NA,NA,NA,48
"825",15,45,0.283128502670267,-1,1,1,0,1,-1,1793,47
"826",15,46,0.193079173208288,NA,3,NA,NA,NA,NA,NA,48
"827",15,47,0.187308934231863,-1,1,1,0,1,-1,1559,47
"828",15,48,0.192157806164137,1,3,-1,0,1,1,1993,48
"829",15,49,0.135335037118522,-1,2,1,0,1,-1,2180,47
"830",15,50,0.187199169900946,NA,3,NA,NA,NA,NA,NA,46
"831",15,51,0.134341710528282,NA,1,NA,NA,NA,NA,NA,47
"832",15,52,0.13470810972451,NA,2,NA,NA,NA,NA,NA,48
"833",15,53,0.111418308973697,-1,1,1,0,1,-1,1950,47
"834",15,54,0.146685277861829,-1,2,1,0,1,-1,1697,46
"835",15,55,0.165003857427428,-1,3,-1,1,1,-1,2096,45
"836",15,56,0.261525049230152,NA,2,NA,NA,NA,NA,NA,46
"837",15,57,0.182983170855273,NA,1,NA,NA,NA,NA,NA,47
"838",15,58,0.189649179483435,NA,3,NA,NA,NA,NA,NA,48
"839",15,59,0.104570534962164,NA,1,NA,NA,NA,NA,NA,49
"840",15,60,0.132731867380345,NA,3,NA,NA,NA,NA,NA,50
"841",16,1,0.52259059234391,1,2,1,1,1,1,3181,19
"842",16,2,0.457933269892855,-1,3,-1,1,1,-1,1799,18
"843",16,3,0.469001695202792,NA,1,NA,NA,NA,NA,NA,19
"844",16,4,0.415394786957819,NA,3,NA,NA,NA,NA,NA,20
"845",16,5,0.367909193943332,NA,2,NA,NA,NA,NA,NA,21
"846",16,6,0.479265379735418,NA,1,NA,NA,NA,NA,NA,22
"847",16,7,0.534316389185655,NA,2,NA,NA,NA,NA,NA,21
"848",16,8,0.479792538928471,NA,1,NA,NA,NA,NA,NA,22
"849",16,9,0.58497532374292,NA,3,NA,NA,NA,NA,NA,23
"850",16,10,0.733018099996277,NA,1,NA,NA,NA,NA,NA,22
"851",16,11,0.833091984193777,NA,2,NA,NA,NA,NA,NA,21
"852",16,12,0.693810221489767,NA,3,NA,NA,NA,NA,NA,22
"853",16,13,0.797528130088628,NA,2,NA,NA,NA,NA,NA,21
"854",16,14,0.705323911496915,NA,3,NA,NA,NA,NA,NA,20
"855",16,15,0.618154835242654,NA,1,NA,NA,NA,NA,NA,21
"856",16,16,0.593504600622906,NA,3,NA,NA,NA,NA,NA,20
"857",16,17,0.709070931192064,1,2,-1,0,1,1,1534,21
"858",16,18,0.765349062350141,1,1,1,1,1,1,1573,22
"859",16,19,0.779678720527411,-1,2,-1,1,1,-1,1563,21
"860",16,20,0.830488767884272,1,1,1,1,1,1,1541,22
"861",16,21,0.736575511415135,-1,1,-1,1,1,-1,2647,21
"862",16,22,0.75296664232244,1,2,1,1,1,1,1648,22
"863",16,23,0.600327306427041,1,3,-1,0,1,1,3767,23
"864",16,24,0.532412848059413,1,2,-1,0,1,1,1688,24
"865",16,25,0.526408451367896,NA,1,NA,NA,NA,NA,NA,23
"866",16,26,0.579965515229117,NA,3,NA,NA,NA,NA,NA,24
"867",16,27,0.587157128788649,1,1,1,1,1,1,1533,25
"868",16,28,0.694594634488874,1,3,-1,0,1,1,1807,26
"869",16,29,0.612198715534637,1,2,-1,0,1,1,1535,27
"870",16,30,0.458931590192777,-1,3,1,0,1,-1,1639,26
"871",16,31,0.442101977913846,NA,1,NA,NA,NA,NA,NA,27
"872",16,32,0.540603939056841,NA,2,NA,NA,NA,NA,NA,28
"873",16,33,0.497893148421815,-1,1,1,0,1,-1,1582,27
"874",16,34,0.422078622762471,NA,2,NA,NA,NA,NA,NA,28
"875",16,35,0.454487084157351,NA,3,NA,NA,NA,NA,NA,29
"876",16,36,0.509182367089784,NA,2,NA,NA,NA,NA,NA,30
"877",16,37,0.450004030006836,-1,1,1,0,1,-1,1669,29
"878",16,38,0.631252765913895,NA,3,NA,NA,NA,NA,NA,28
"879",16,39,0.647504010279989,1,1,1,1,1,1,1710,29
"880",16,40,0.655709097220772,1,3,1,1,1,1,1614,30
"881",16,41,0.585669097499883,-1,3,1,0,1,-1,1614,29
"882",16,42,0.557350736466256,1,1,1,1,1,1,1672,30
"883",16,43,0.548541841689805,-1,2,1,0,1,-1,1780,29
"884",16,44,0.548880157330842,1,1,1,1,1,1,1592,30
"885",16,45,0.477783090735287,1,3,-1,0,1,1,1717,31
"886",16,46,0.48971787030045,1,2,1,1,1,1,1659,32
"887",16,47,0.471927899271074,1,3,-1,0,1,1,1621,33
"888",16,48,0.418763994211564,1,2,1,1,1,1,1822,34
"889",16,49,0.351062716002078,-1,1,-1,1,1,-1,3284,33
"890",16,50,0.364273083167217,NA,2,NA,NA,NA,NA,NA,34
"891",16,51,0.33278322537756,NA,3,NA,NA,NA,NA,NA,34
"892",16,52,0.259267455432583,NA,1,NA,NA,NA,NA,NA,34
"893",16,53,0.315205023559802,NA,3,NA,NA,NA,NA,NA,35
"894",16,54,0.350273821637296,1,1,1,1,1,1,1698,36
"895",16,55,0.308193022018092,-1,2,1,0,1,-1,1606,35
"896",16,56,0.245814967385478,-1,1,1,0,1,-1,1689,34
"897",16,57,0.277212605297945,-1,3,-1,1,1,-1,1557,33
"898",16,58,0.326719021278503,-1,2,1,0,1,-1,2020,32
"899",16,59,0.186008535634305,NA,3,NA,NA,NA,NA,NA,33
"900",16,60,0.206976622220311,NA,2,NA,NA,NA,NA,NA,32
"901",17,1,0.485216576595014,NA,3,NA,NA,NA,NA,NA,23
"902",17,2,0.467769317517026,NA,1,NA,NA,NA,NA,NA,24
"903",17,3,0.420266972454448,1,2,1,1,1,1,2846,25
"904",17,4,0.523830154399844,1,1,1,1,1,1,2060,26
"905",17,5,0.472553900943212,-1,3,-1,1,1,-1,2058,25
"906",17,6,0.420669561242089,1,2,-1,0,1,1,2562,26
"907",17,7,0.309932111646753,NA,3,NA,NA,NA,NA,NA,25
"908",17,8,0.269627524442159,NA,2,NA,NA,NA,NA,NA,24
"909",17,9,0.299165070265104,-1,1,1,0,1,-1,2142,23
"910",17,10,0.403248508102921,NA,2,NA,NA,NA,NA,NA,24
"911",17,11,0.483956895940482,NA,3,NA,NA,NA,NA,NA,25
"912",17,12,0.492347186348342,1,1,1,1,1,1,2097,26
"913",17,13,0.484443235252949,-1,3,1,0,1,-1,2094,25
"914",17,14,0.485558913547719,1,1,1,1,1,1,2006,26
"915",17,15,0.540729338121405,1,2,-1,0,1,1,2283,27
"916",17,16,0.560446727413393,NA,1,NA,NA,NA,NA,NA,26
"917",17,17,0.605695593542612,NA,3,NA,NA,NA,NA,NA,27
"918",17,18,0.599606182023032,NA,2,NA,NA,NA,NA,NA,26
"919",17,19,0.698803150591375,1,3,-1,0,1,1,1790,27
"920",17,20,0.712380659142972,NA,2,NA,NA,NA,NA,NA,26
"921",17,21,0.635411922958449,1,2,1,1,1,1,1911,27
"922",17,22,0.762365847179251,-1,3,-1,1,1,-1,2245,26
"923",17,23,0.871130035372693,1,1,1,1,1,1,1546,27
"924",17,24,0.880516057485725,1,3,-1,0,1,1,2148,28
"925",17,25,0.89469535475741,1,2,1,1,1,1,2703,29
"926",17,26,0.822813816089627,1,1,1,1,1,1,2006,30
"927",17,27,0.770976783362954,-1,2,1,0,1,-1,2191,29
"928",17,28,0.767910763173603,-1,1,1,0,1,-1,2255,28
"929",17,29,0.837556038908451,NA,3,NA,NA,NA,NA,NA,27
"930",17,30,0.861545596353109,1,1,1,1,1,1,2166,28
"931",17,31,0.866906808752486,1,2,1,1,1,1,1989,29
"932",17,32,0.799944185600511,NA,3,NA,NA,NA,NA,NA,28
"933",17,33,0.807523782301645,NA,2,NA,NA,NA,NA,NA,27
"934",17,34,0.743328535488196,1,3,-1,0,1,1,2384,28
"935",17,35,0.730573398172789,NA,1,NA,NA,NA,NA,NA,27
"936",17,36,0.630879814757921,-1,3,-1,1,1,-1,2314,26
"937",17,37,0.573299504895416,NA,2,NA,NA,NA,NA,NA,25
"938",17,38,0.435286818666627,NA,1,NA,NA,NA,NA,NA,26
"939",17,39,0.432238691556504,NA,2,NA,NA,NA,NA,NA,25
"940",17,40,0.438090996061645,NA,1,NA,NA,NA,NA,NA,26
"941",17,41,0.392689515329977,NA,1,NA,NA,NA,NA,NA,27
"942",17,42,0.363221445471116,NA,2,NA,NA,NA,NA,NA,26
"943",17,43,0.353085449047901,1,3,-1,0,1,1,2294,27
"944",17,44,0.317301563321535,-1,2,1,0,1,-1,1974,26
"945",17,45,0.246051535847431,NA,1,NA,NA,NA,NA,NA,27
"946",17,46,0.237868627165713,NA,3,NA,NA,NA,NA,NA,28
"947",17,47,0.281425588189397,1,1,1,1,1,1,1983,29
"948",17,48,0.151131156169265,NA,3,NA,NA,NA,NA,NA,30
"949",17,49,0.174023939447542,NA,2,NA,NA,NA,NA,NA,31
"950",17,50,0.16163403296912,NA,3,NA,NA,NA,NA,NA,32
"951",17,51,0.145567727784328,NA,1,NA,NA,NA,NA,NA,33
"952",17,52,0.169356527431422,NA,2,NA,NA,NA,NA,NA,34
"953",17,53,0.172529279266254,-1,1,1,0,1,-1,1680,33
"954",17,54,0.178555232089237,-1,2,1,0,1,-1,1643,32
"955",17,55,0.178212647093128,NA,3,NA,NA,NA,NA,NA,33
"956",17,56,0.198037636866476,-1,2,1,0,1,-1,1943,32
"957",17,57,0.162643534665563,NA,1,NA,NA,NA,NA,NA,33
"958",17,58,0.291316319263931,1,3,-1,0,1,1,2506,34
"959",17,59,0.277395406502386,NA,1,NA,NA,NA,NA,NA,35
"960",17,60,0.231862824111802,NA,3,NA,NA,NA,NA,NA,36
"961",18,1,0.591665962152183,NA,1,NA,NA,NA,NA,NA,7
"962",18,2,0.548765942482803,-1,2,-1,1,1,-1,2087,6
"963",18,3,0.557007552865328,NA,3,NA,NA,NA,NA,NA,5
"964",18,4,0.495949472949318,NA,2,NA,NA,NA,NA,NA,6
"965",18,5,0.419722887160704,NA,1,NA,NA,NA,NA,NA,7
"966",18,6,0.465147916477755,NA,3,NA,NA,NA,NA,NA,8
"967",18,7,0.537639299757063,NA,1,NA,NA,NA,NA,NA,7
"968",18,8,0.598021104901299,NA,3,NA,NA,NA,NA,NA,8
"969",18,9,0.570149603310156,NA,2,NA,NA,NA,NA,NA,9
"970",18,10,0.684872730995662,NA,3,NA,NA,NA,NA,NA,8
"971",18,11,0.692808938827007,1,1,1,1,1,1,3078,9
"972",18,12,0.633873586075368,NA,2,NA,NA,NA,NA,NA,8
"973",18,13,0.50381783218727,NA,1,NA,NA,NA,NA,NA,9
"974",18,14,0.700093125679727,NA,2,NA,NA,NA,NA,NA,8
"975",18,15,0.726145127813094,1,3,-1,0,1,1,1951,9
"976",18,16,0.702721772184237,1,2,-1,0,1,1,1796,10
"977",18,17,0.779329635967013,1,1,1,1,1,1,1777,11
"978",18,18,0.815352555972839,NA,3,NA,NA,NA,NA,NA,10
"979",18,19,0.806773822579974,1,1,1,1,1,1,2112,11
"980",18,20,0.648738650467157,NA,3,NA,NA,NA,NA,NA,12
"981",18,21,0.707236258887124,NA,2,NA,NA,NA,NA,NA,11
"982",18,22,0.711143211423432,1,3,-1,0,1,1,2158,12
"983",18,23,0.722819120650181,1,1,1,1,1,1,1778,13
"984",18,24,0.729402155177977,NA,3,NA,NA,NA,NA,NA,14
"985",18,25,0.603680419940707,NA,2,NA,NA,NA,NA,NA,13
"986",18,26,0.483750947949041,NA,1,NA,NA,NA,NA,NA,14
"987",18,27,0.584189117049833,1,2,-1,0,1,1,1794,15
"988",18,28,0.650025611995781,1,1,1,1,1,1,1978,16
"989",18,29,0.762049936532645,1,3,-1,0,1,1,1823,17
"990",18,30,0.62611465701798,-1,1,1,0,1,-1,1756,16
"991",18,31,0.665181090993289,-1,2,-1,1,1,-1,1800,15
"992",18,32,0.658751582958882,NA,3,NA,NA,NA,NA,NA,16
"993",18,33,0.636599037763679,1,2,-1,0,1,1,1819,17
"994",18,34,0.71093206633824,NA,3,NA,NA,NA,NA,NA,18
"995",18,35,0.575784594936322,NA,1,NA,NA,NA,NA,NA,19
"996",18,36,0.526028688481178,NA,3,NA,NA,NA,NA,NA,18
"997",18,37,0.49759439441422,NA,2,NA,NA,NA,NA,NA,17
"998",18,38,0.47060056584185,NA,1,NA,NA,NA,NA,NA,16
"999",18,39,0.375410805531825,NA,2,NA,NA,NA,NA,NA,15
"1000",18,40,0.274495299818205,NA,1,NA,NA,NA,NA,NA,16
"1001",18,41,0.298867334853643,NA,3,NA,NA,NA,NA,NA,17
"1002",18,42,0.384332957049834,-1,1,1,0,1,-1,2225,16
"1003",18,43,0.429010896232966,NA,2,NA,NA,NA,NA,NA,17
"1004",18,44,0.399394438575868,NA,1,NA,NA,NA,NA,NA,18
"1005",18,45,0.280904230656348,NA,3,NA,NA,NA,NA,NA,19
"1006",18,46,0.18892694267227,NA,2,NA,NA,NA,NA,NA,20
"1007",18,47,0.156305733150359,NA,3,NA,NA,NA,NA,NA,21
"1008",18,48,0.261895571909438,NA,2,NA,NA,NA,NA,NA,20
"1009",18,49,0.390205377440113,1,1,1,1,1,1,1944,21
"1010",18,50,0.382022692377993,NA,2,NA,NA,NA,NA,NA,22
"1011",18,51,0.32822669920524,NA,3,NA,NA,NA,NA,NA,21
"1012",18,52,0.362468956358578,NA,1,NA,NA,NA,NA,NA,22
"1013",18,53,0.504183304846617,NA,3,NA,NA,NA,NA,NA,23
"1014",18,54,0.332284337524522,NA,1,NA,NA,NA,NA,NA,24
"1015",18,55,0.31031612074807,-1,2,-1,1,1,-1,2892,23
"1016",18,56,0.273854622922537,NA,1,NA,NA,NA,NA,NA,24
"1017",18,57,0.262136832055246,-1,3,-1,1,1,-1,1865,23
"1018",18,58,0.250280779629696,1,2,-1,0,1,1,1594,24
"1019",18,59,0.310399002632907,NA,3,NA,NA,NA,NA,NA,25
"1020",18,60,0.205998923430864,NA,2,NA,NA,NA,NA,NA,26
"1021",19,1,0.498911191616207,1,1,1,1,1,1,3863,26
"1022",19,2,0.531134438107312,1,2,-1,0,1,1,3378,27
"1023",19,3,0.555276916635828,1,3,-1,0,1,1,1808,28
"1024",19,4,0.516352369401822,NA,2,NA,NA,NA,NA,NA,29
"1025",19,5,0.501618294379963,1,1,1,1,1,1,2110,30
"1026",19,6,0.596643207255066,1,3,-1,0,1,1,2066,31
"1027",19,7,0.630783639459413,NA,1,NA,NA,NA,NA,NA,30
"1028",19,8,0.485527374446925,NA,3,NA,NA,NA,NA,NA,31
"1029",19,9,0.570248876186402,NA,2,NA,NA,NA,NA,NA,32
"1030",19,10,0.493941641996695,NA,3,NA,NA,NA,NA,NA,33
"1031",19,11,0.56094162833862,1,1,1,1,1,1,1890,34
"1032",19,12,0.522519549031624,-1,2,1,0,1,-1,1892,33
"1033",19,13,0.654343810993421,1,1,1,1,1,1,1763,34
"1034",19,14,0.712042171372005,1,2,-1,0,1,1,1878,35
"1035",19,15,0.771178372057123,NA,3,NA,NA,NA,NA,NA,34
"1036",19,16,0.757663300417383,NA,2,NA,NA,NA,NA,NA,33
"1037",19,17,0.782089863289992,1,1,1,1,1,1,1775,34
"1038",19,18,0.785445037252586,NA,3,NA,NA,NA,NA,NA,33
"1039",19,19,0.785521108091076,1,1,1,1,1,1,1760,34
"1040",19,20,0.859195949495838,1,3,-1,0,1,1,1815,35
"1041",19,21,0.829496748413297,-1,2,1,0,1,-1,1795,34
"1042",19,22,0.845027137711859,1,3,-1,0,1,1,1798,35
"1043",19,23,0.896457621281964,1,1,1,1,1,1,1796,36
"1044",19,24,0.878453718315065,NA,3,NA,NA,NA,NA,NA,37
"1045",19,25,0.756453172100731,1,2,-1,0,1,1,1829,38
"1046",19,26,0.758979010789361,NA,1,NA,NA,NA,NA,NA,37
"1047",19,27,0.581816092233995,NA,2,NA,NA,NA,NA,NA,36
"1048",19,28,0.554109048423597,1,1,1,1,1,1,1772,37
"1049",19,29,0.592757267033494,NA,3,NA,NA,NA,NA,NA,36
"1050",19,30,0.569168004897091,1,1,1,1,1,1,2001,37
"1051",19,31,0.43969343832332,-1,2,-1,1,1,-1,1865,36
"1052",19,32,0.437751315774567,1,3,-1,0,1,1,1765,37
"1053",19,33,0.429711297821686,NA,2,NA,NA,NA,NA,NA,36
"1054",19,34,0.347192965130305,NA,3,NA,NA,NA,NA,NA,37
"1055",19,35,0.247242874142491,NA,1,NA,NA,NA,NA,NA,36
"1056",19,36,0.302301955764038,NA,3,NA,NA,NA,NA,NA,37
"1057",19,37,0.301953737742216,1,2,1,1,1,1,2008,38
"1058",19,38,0.351290532932284,NA,1,NA,NA,NA,NA,NA,37
"1059",19,39,0.274647982629146,NA,2,NA,NA,NA,NA,NA,38
"1060",19,40,0.245677431565263,-1,1,-1,1,1,-1,1813,37
"1061",19,41,0.147220789559994,-1,3,-1,1,1,-1,1743,36
"1062",19,42,0.12887628494694,NA,1,NA,NA,NA,NA,NA,37
"1063",19,43,0.106660255462356,-1,2,1,0,1,-1,1734,36
"1064",19,44,0.150428448703496,NA,1,NA,NA,NA,NA,NA,37
"1065",19,45,0.223240072747603,NA,3,NA,NA,NA,NA,NA,38
"1066",19,46,0.186842654532688,-1,2,1,0,1,-1,1841,37
"1067",19,47,0.193415505097675,1,3,-1,0,1,1,1760,38
"1068",19,48,0.141637920922295,NA,2,NA,NA,NA,NA,NA,37
"1069",19,49,0.168906718218123,1,1,1,1,1,1,1750,38
"1070",19,50,0.166908096974589,NA,2,NA,NA,NA,NA,NA,39
"1071",19,51,0.114029105156943,-1,3,-1,1,1,-1,1790,38
"1072",19,52,0.165813435274628,NA,1,NA,NA,NA,NA,NA,39
"1073",19,53,0.234996754766697,-1,3,-1,1,1,-1,1778,38
"1074",19,54,0.130655447719006,-1,1,1,0,1,-1,1750,37
"1075",19,55,0.160839224917205,NA,2,NA,NA,NA,NA,NA,38
"1076",19,56,0.322994043533345,NA,1,NA,NA,NA,NA,NA,39
"1077",19,57,0.369921767912893,NA,3,NA,NA,NA,NA,NA,40
"1078",19,58,0.377673155117026,NA,2,NA,NA,NA,NA,NA,39
"1079",19,59,0.441517659248201,NA,3,NA,NA,NA,NA,NA,40
"1080",19,60,0.446821590745794,NA,2,NA,NA,NA,NA,NA,39
"1081",20,1,0.587410784279928,NA,2,NA,NA,NA,NA,NA,12
"1082",20,2,0.548341099008077,1,3,-1,0,1,1,2962,13
"1083",20,3,0.593387830464586,NA,1,NA,NA,NA,NA,NA,12
"1084",20,4,0.626039500284791,-1,3,-1,1,1,-1,1882,11
"1085",20,5,0.679627770515229,1,2,1,1,1,1,3497,12
"1086",20,6,0.734897007594493,1,1,1,1,1,1,1958,13
"1087",20,7,0.636239137125857,NA,2,NA,NA,NA,NA,NA,12
"1088",20,8,0.620756244667007,1,1,1,1,1,1,1798,13
"1089",20,9,0.541781346787323,1,3,-1,0,1,1,2228,14
"1090",20,10,0.576714911631827,1,1,1,1,1,1,1868,15
"1091",20,11,0.662507360103633,1,2,1,1,1,1,1543,16
"1092",20,12,0.587184970430029,1,3,-1,0,1,1,1912,17
"1093",20,13,0.513776738521828,-1,2,1,0,1,-1,2207,16
"1094",20,14,0.594804161407871,1,3,-1,0,1,1,1787,17
"1095",20,15,0.614699151052662,NA,1,NA,NA,NA,NA,NA,16
"1096",20,16,0.586702038807969,NA,3,NA,NA,NA,NA,NA,17
"1097",20,17,0.592602660071957,1,2,1,1,1,1,2188,18
"1098",20,18,0.492482122503194,-1,1,1,0,1,-1,1761,17
"1099",20,19,0.527187100011408,1,2,-1,0,1,1,2310,18
"1100",20,20,0.565469048224261,1,1,1,1,1,1,1684,19
"1101",20,21,0.492900817548421,NA,3,NA,NA,NA,NA,NA,20
"1102",20,22,0.462478226421055,-1,1,1,0,1,-1,1858,19
"1103",20,23,0.465494554336751,-1,2,1,0,1,-1,1957,18
"1104",20,24,0.479084462070474,1,1,1,1,1,1,1604,19
"1105",20,25,0.589163766150214,1,3,-1,0,1,1,1691,20
"1106",20,26,0.720084972424262,1,2,-1,0,1,1,1792,21
"1107",20,27,0.687324188428673,NA,3,NA,NA,NA,NA,NA,22
"1108",20,28,0.729456032112798,NA,2,NA,NA,NA,NA,NA,21
"1109",20,29,0.700844507915021,NA,1,NA,NA,NA,NA,NA,20
"1110",20,30,0.670140381900629,1,2,1,1,1,1,2130,21
"1111",20,31,0.776015589260759,NA,3,NA,NA,NA,NA,NA,20
"1112",20,32,0.597891304146429,NA,1,NA,NA,NA,NA,NA,21
"1113",20,33,0.472361748755174,1,3,-1,0,1,1,3470,22
"1114",20,34,0.342685742074156,1,1,1,1,1,1,1730,23
"1115",20,35,0.3721475839517,1,2,1,1,1,1,1748,24
"1116",20,36,0.270296970015828,NA,1,NA,NA,NA,NA,NA,25
"1117",20,37,0.241603716047469,NA,3,NA,NA,NA,NA,NA,26
"1118",20,38,0.237399299788853,NA,2,NA,NA,NA,NA,NA,25
"1119",20,39,0.217671355984456,NA,3,NA,NA,NA,NA,NA,26
"1120",20,40,0.310524046732501,-1,2,-1,1,1,-1,4231,25
"1121",20,41,0.158705112719733,1,1,1,1,1,1,1736,26
"1122",20,42,0.146015771195595,-1,2,1,0,1,-1,2172,25
"1123",20,43,0.219532149156966,1,3,-1,0,1,1,1864,26
"1124",20,44,0.414888717617407,-1,2,-1,1,1,-1,2936,25
"1125",20,45,0.354358680073018,NA,1,NA,NA,NA,NA,NA,26
"1126",20,46,0.254520603070591,1,3,-1,0,1,1,1746,27
"1127",20,47,0.269407984167441,NA,1,NA,NA,NA,NA,NA,28
"1128",20,48,0.272524464510453,-1,3,-1,1,1,-1,1772,27
"1129",20,49,0.362124170888672,1,2,1,1,1,1,5254,28
"1130",20,50,0.245552147171183,1,3,-1,0,1,1,2591,29
"1131",20,51,0.280965605695066,NA,1,NA,NA,NA,NA,NA,29
"1132",20,52,0.231282948260535,NA,2,NA,NA,NA,NA,NA,29
"1133",20,53,0.305035080327057,1,1,1,1,1,1,1993,30
"1134",20,54,0.23941301704982,NA,2,NA,NA,NA,NA,NA,31
"1135",20,55,0.251053490078013,NA,3,NA,NA,NA,NA,NA,32
"1136",20,56,0.219318603481328,NA,2,NA,NA,NA,NA,NA,33
"1137",20,57,0.159039619974168,1,1,1,1,1,1,1822,34
"1138",20,58,0.267411276164514,NA,3,NA,NA,NA,NA,NA,35
"1139",20,59,0.4597011538817,1,1,1,1,1,1,1885,36
"1140",20,60,0.280523372386259,NA,3,NA,NA,NA,NA,NA,35
"1141",21,1,0.408096576482058,1,3,-1,0,1,1,4996,15
"1142",21,2,0.352186721185584,NA,1,NA,NA,NA,NA,NA,16
"1143",21,3,0.399911069243389,NA,2,NA,NA,NA,NA,NA,15
"1144",21,4,0.474650673370596,NA,1,NA,NA,NA,NA,NA,16
"1145",21,5,0.577046001893857,1,3,-1,0,1,1,1903,17
"1146",21,6,0.621225970280356,NA,2,NA,NA,NA,NA,NA,16
"1147",21,7,0.719794558418288,NA,3,NA,NA,NA,NA,NA,15
"1148",21,8,0.728872654573447,1,2,1,1,1,1,1864,16
"1149",21,9,0.681327860200891,1,1,1,1,1,1,1812,17
"1150",21,10,0.675895780000658,NA,2,NA,NA,NA,NA,NA,16
"1151",21,11,0.702354124947107,NA,3,NA,NA,NA,NA,NA,15
"1152",21,12,0.718150834504766,1,1,1,1,1,1,1561,16
"1153",21,13,0.796446172401028,1,3,-1,0,1,1,2113,17
"1154",21,14,0.663109671295053,1,1,1,1,1,1,1618,18
"1155",21,15,0.768778940990691,1,2,1,1,1,1,1726,19
"1156",21,16,0.709753924983886,NA,1,NA,NA,NA,NA,NA,20
"1157",21,17,0.723012876263292,NA,3,NA,NA,NA,NA,NA,19
"1158",21,18,0.758664485216968,NA,2,NA,NA,NA,NA,NA,18
"1159",21,19,0.800706630666557,1,3,-1,0,1,1,2060,19
"1160",21,20,0.718815896370041,NA,2,NA,NA,NA,NA,NA,18
"1161",21,21,0.641693148460564,NA,1,NA,NA,NA,NA,NA,19
"1162",21,22,0.598065721461621,NA,2,NA,NA,NA,NA,NA,20
"1163",21,23,0.664892053337922,1,3,-1,0,1,1,1604,21
"1164",21,24,0.639492673228321,NA,2,NA,NA,NA,NA,NA,22
"1165",21,25,0.558883606822416,-1,1,1,0,1,-1,1877,21
"1166",21,26,0.522980519609555,NA,3,NA,NA,NA,NA,NA,22
"1167",21,27,0.408254495634735,NA,1,NA,NA,NA,NA,NA,23
"1168",21,28,0.38106528888284,NA,3,NA,NA,NA,NA,NA,24
"1169",21,29,0.329581599854215,NA,2,NA,NA,NA,NA,NA,25
"1170",21,30,0.413509669086383,1,3,-1,0,1,1,2315,26
"1171",21,31,0.44624632719226,NA,1,NA,NA,NA,NA,NA,25
"1172",21,32,0.453621411809769,-1,2,1,0,1,-1,1739,24
"1173",21,33,0.407057131974555,NA,1,NA,NA,NA,NA,NA,25
"1174",21,34,0.323255802353862,NA,2,NA,NA,NA,NA,NA,24
"1175",21,35,0.393693316303418,NA,3,NA,NA,NA,NA,NA,25
"1176",21,36,0.377332736738018,NA,2,NA,NA,NA,NA,NA,24
"1177",21,37,0.410948119383487,NA,1,NA,NA,NA,NA,NA,25
"1178",21,38,0.557897783735077,-1,3,-1,1,1,-1,1784,24
"1179",21,39,0.529273856658756,1,1,1,1,1,1,1864,25
"1180",21,40,0.454791725329994,-1,3,-1,1,1,-1,1677,24
"1181",21,41,0.504606438641393,-1,2,1,0,1,-1,1702,23
"1182",21,42,0.51386296087642,NA,3,NA,NA,NA,NA,NA,24
"1183",21,43,0.458257532085647,1,1,1,1,1,1,1719,25
"1184",21,44,0.460241886535894,NA,3,NA,NA,NA,NA,NA,26
"1185",21,45,0.315114177431193,-1,2,1,0,1,-1,1800,25
"1186",21,46,0.285265760777982,NA,1,NA,NA,NA,NA,NA,26
"1187",21,47,0.235127571957986,-1,2,-1,1,1,-1,2130,25
"1188",21,48,0.174214802640968,NA,1,NA,NA,NA,NA,NA,26
"1189",21,49,0.105486109281138,NA,3,NA,NA,NA,NA,NA,27
"1190",21,50,0.142398154692416,NA,1,NA,NA,NA,NA,NA,26
"1191",21,51,0.124056691884359,NA,2,NA,NA,NA,NA,NA,27
"1192",21,52,0.457023634427296,NA,3,NA,NA,NA,NA,NA,28
"1193",21,53,0.515099904203706,1,2,1,1,1,1,2029,29
"1194",21,54,0.450042602947374,-1,3,-1,1,1,-1,1851,28
"1195",21,55,0.350376941843816,1,1,1,1,1,1,1778,29
"1196",21,56,0.392003049844262,-1,3,-1,1,1,-1,1836,28
"1197",21,57,0.317659799519566,1,2,1,1,1,1,1967,29
"1198",21,58,0.370673500135471,-1,1,1,0,1,-1,1600,28
"1199",21,59,0.37385316106379,-1,2,1,0,1,-1,1523,27
"1200",21,60,0.416720727751157,1,1,-1,0,1,1,2680,28
"1201",22,1,0.501378734596074,1,1,1,1,1,1,3980,7
"1202",22,2,0.572733546726515,NA,2,NA,NA,NA,NA,NA,6
"1203",22,3,0.515403596560782,NA,3,NA,NA,NA,NA,NA,7
"1204",22,4,0.408442915062511,1,2,1,1,1,1,2296,8
"1205",22,5,0.418772304145192,NA,1,NA,NA,NA,NA,NA,9
"1206",22,6,0.452475484193884,NA,3,NA,NA,NA,NA,NA,10
"1207",22,7,0.453625479336492,-1,1,-1,1,1,-1,2743,9
"1208",22,8,0.521282901082666,NA,3,NA,NA,NA,NA,NA,10
"1209",22,9,0.386223008749518,NA,2,NA,NA,NA,NA,NA,11
"1210",22,10,0.411902201783179,NA,3,NA,NA,NA,NA,NA,12
"1211",22,11,0.620365869186084,1,1,-1,0,1,1,2062,13
"1212",22,12,0.513361828296613,1,2,-1,0,1,1,2072,14
"1213",22,13,0.500271688421569,1,1,1,1,1,1,2256,15
"1214",22,14,0.533943950631019,-1,2,1,0,1,-1,2056,14
"1215",22,15,0.529365595818396,1,3,-1,0,1,1,2425,15
"1216",22,16,0.563474761889344,NA,2,NA,NA,NA,NA,NA,14
"1217",22,17,0.673667238963473,-1,1,-1,1,1,-1,1919,13
"1218",22,18,0.655098300115953,NA,3,NA,NA,NA,NA,NA,14
"1219",22,19,0.661587433560641,NA,1,NA,NA,NA,NA,NA,13
"1220",22,20,0.726678725662425,1,3,1,1,1,1,1989,14
"1221",22,21,0.735057169630472,1,2,1,1,1,1,1977,15
"1222",22,22,0.794082255521003,1,3,-1,0,1,1,1967,16
"1223",22,23,0.760283056509681,NA,1,NA,NA,NA,NA,NA,15
"1224",22,24,0.82047455957342,NA,3,NA,NA,NA,NA,NA,14
"1225",22,25,0.815552775462976,1,2,1,1,1,1,2152,15
"1226",22,26,0.727632153377613,NA,1,NA,NA,NA,NA,NA,14
"1227",22,27,0.675560275235123,1,2,1,1,1,1,2423,15
"1228",22,28,0.760101686898555,-1,1,1,0,1,-1,2020,14
"1229",22,29,0.7929508808239,NA,3,NA,NA,NA,NA,NA,15
"1230",22,30,0.853923402308354,1,1,1,1,1,1,2306,16
"1231",22,31,0.756975732539751,NA,2,NA,NA,NA,NA,NA,15
"1232",22,32,0.783825457678101,NA,3,NA,NA,NA,NA,NA,14
"1233",22,33,0.75271904827179,1,2,1,1,1,1,2112,15
"1234",22,34,0.697387150238415,NA,3,NA,NA,NA,NA,NA,14
"1235",22,35,0.606825220869863,1,1,1,1,1,1,2646,15
"1236",22,36,0.489657785726921,NA,3,NA,NA,NA,NA,NA,16
"1237",22,37,0.525825537171577,-1,2,1,0,1,-1,2540,15
"1238",22,38,0.480025955262962,NA,1,NA,NA,NA,NA,NA,14
"1239",22,39,0.380823964439088,-1,2,1,0,1,-1,1967,13
"1240",22,40,0.363031347010573,NA,1,NA,NA,NA,NA,NA,14
"1241",22,41,0.308061672249728,NA,3,NA,NA,NA,NA,NA,15
"1242",22,42,0.282705058940264,NA,1,NA,NA,NA,NA,NA,14
"1243",22,43,0.24845949541932,-1,2,1,0,1,-1,1879,13
"1244",22,44,0.31860723322986,NA,1,NA,NA,NA,NA,NA,14
"1245",22,45,0.366489650471748,NA,3,NA,NA,NA,NA,NA,13
"1246",22,46,0.414802412605219,1,2,-1,0,1,1,2315,14
"1247",22,47,0.414038061390996,-1,3,1,0,1,-1,1924,13
"1248",22,48,0.325747159050545,NA,2,NA,NA,NA,NA,NA,14
"1249",22,49,0.348228539849759,-1,1,-1,1,1,-1,2049,13
"1250",22,50,0.335682065475759,NA,2,NA,NA,NA,NA,NA,12
"1251",22,51,0.400336606861028,-1,3,1,0,1,-1,2375,11
"1252",22,52,0.292981631987198,NA,1,NA,NA,NA,NA,NA,12
"1253",22,53,0.219202574718017,NA,3,NA,NA,NA,NA,NA,13
"1254",22,54,0.160142255497001,NA,1,NA,NA,NA,NA,NA,14
"1255",22,55,0.279690449604361,NA,2,NA,NA,NA,NA,NA,15
"1256",22,56,0.335740240232473,1,1,1,1,1,1,2351,16
"1257",22,57,0.26681170127919,-1,3,1,0,1,-1,1861,15
"1258",22,58,0.302249701080764,NA,2,NA,NA,NA,NA,NA,16
"1259",22,59,0.384084479492902,NA,3,NA,NA,NA,NA,NA,15
"1260",22,60,0.395032317012677,1,2,1,1,1,1,2111,16
"1261",23,1,0.567294158596652,NA,2,NA,NA,NA,NA,NA,13
"1262",23,2,0.543827098947541,NA,3,NA,NA,NA,NA,NA,12
"1263",23,3,0.542535976438857,-1,1,-1,1,1,-1,3649,11
"1264",23,4,0.500569601982851,1,3,-1,0,1,1,2555,12
"1265",23,5,0.397859319183183,-1,2,-1,1,1,-1,1802,11
"1266",23,6,0.522058281206453,1,1,1,1,1,1,1799,12
"1267",23,7,0.408959230126637,NA,2,NA,NA,NA,NA,NA,13
"1268",23,8,0.319733449961837,-1,1,-1,1,1,-1,2829,12
"1269",23,9,0.277761152178319,-1,3,1,0,1,-1,1836,11
"1270",23,10,0.348507190590833,NA,1,NA,NA,NA,NA,NA,10
"1271",23,11,0.336046070603503,1,2,1,1,1,1,2493,11
"1272",23,12,0.402656432442026,NA,3,NA,NA,NA,NA,NA,12
"1273",23,13,0.260193085905009,1,2,1,1,1,1,2280,13
"1274",23,14,0.300425758444629,-1,3,1,0,1,-1,1966,12
"1275",23,15,0.311055797971828,NA,1,NA,NA,NA,NA,NA,13
"1276",23,16,0.143586214782633,NA,3,NA,NA,NA,NA,NA,14
"1277",23,17,0.203543558975039,-1,2,1,0,1,-1,1832,13
"1278",23,18,0.192001231881692,NA,1,NA,NA,NA,NA,NA,14
"1279",23,19,0.340327204741901,-1,2,-1,1,1,-1,2025,13
"1280",23,20,0.326305586307833,NA,1,NA,NA,NA,NA,NA,14
"1281",23,21,0.20398998681938,NA,3,NA,NA,NA,NA,NA,15
"1282",23,22,0.20179046460137,-1,1,-1,1,1,-1,1868,14
"1283",23,23,0.186825833134722,1,2,1,1,1,1,1676,15
"1284",23,24,0.274422056947421,-1,1,-1,1,1,-1,1827,14
"1285",23,25,0.219134218194145,NA,3,NA,NA,NA,NA,NA,15
"1286",23,26,0.401816914977445,-1,2,-1,1,1,-1,1532,14
"1287",23,27,0.493639736999548,-1,3,1,0,1,-1,2188,13
"1288",23,28,0.492770554114602,-1,2,1,0,1,-1,2653,12
"1289",23,29,0.487729203713484,1,1,1,1,1,1,1873,13
"1290",23,30,0.477885038404072,NA,2,NA,NA,NA,NA,NA,14
"1291",23,31,0.476322126890025,-1,3,1,0,1,-1,1771,13
"1292",23,32,0.422126609819973,-1,1,1,0,1,-1,1834,12
"1293",23,33,0.415722869778117,-1,3,1,0,1,-1,1980,11
"1294",23,34,0.513797885156537,NA,1,NA,NA,NA,NA,NA,10
"1295",23,35,0.535493893063503,-1,2,1,0,1,-1,2390,9
"1296",23,36,0.66789643689338,-1,1,-1,1,1,-1,2189,8
"1297",23,37,0.610484218562138,NA,3,NA,NA,NA,NA,NA,7
"1298",23,38,0.699620442784877,1,2,1,1,1,1,1713,8
"1299",23,39,0.725204353637873,NA,3,NA,NA,NA,NA,NA,7
"1300",23,40,0.757787942883897,1,2,1,1,1,1,1984,8
"1301",23,41,0.832402984045235,1,1,1,1,1,1,1848,9
"1302",23,42,0.843748129042862,NA,2,NA,NA,NA,NA,NA,8
"1303",23,43,0.839598037129662,NA,3,NA,NA,NA,NA,NA,7
"1304",23,44,0.874632451368775,NA,2,NA,NA,NA,NA,NA,6
"1305",23,45,0.876595299172803,1,1,1,1,1,1,1824,7
"1306",23,46,0.784497484873681,-1,3,1,0,1,-1,1887,6
"1307",23,47,0.791023882194503,NA,1,NA,NA,NA,NA,NA,7
"1308",23,48,0.799095950314136,NA,3,NA,NA,NA,NA,NA,6
"1309",23,49,0.858776871054947,1,2,1,1,1,1,2008,7
"1310",23,50,0.862295115922787,1,3,1,1,1,1,2948,8
"1311",23,51,0.869516303426027,1,1,1,1,1,1,1775,9
"1312",23,52,0.851161708362167,NA,2,NA,NA,NA,NA,NA,8
"1313",23,53,0.877145435309477,NA,1,NA,NA,NA,NA,NA,7
"1314",23,54,0.845531376792049,1,2,1,1,1,1,1629,8
"1315",23,55,0.85513810188488,1,3,-1,0,1,1,1716,9
"1316",23,56,0.831742093660377,1,2,-1,0,1,1,1663,10
"1317",23,57,0.778449237846902,NA,1,NA,NA,NA,NA,NA,9
"1318",23,58,0.665348658345346,1,3,-1,0,1,1,2288,10
"1319",23,59,0.775477333081638,1,1,1,1,1,1,1927,11
"1320",23,60,0.65884363905137,-1,3,1,0,1,-1,1531,10
"1321",24,1,0.538510978013888,1,2,1,1,1,1,2473,31
"1322",24,2,0.611205097272431,-1,3,-1,1,1,-1,3100,30
"1323",24,3,0.564583846811987,NA,1,NA,NA,NA,NA,NA,31
"1324",24,4,0.677611485061642,NA,3,NA,NA,NA,NA,NA,30
"1325",24,5,0.724967218625335,NA,2,NA,NA,NA,NA,NA,29
"1326",24,6,0.819228486956662,NA,1,NA,NA,NA,NA,NA,28
"1327",24,7,0.865162238963516,1,2,-1,0,1,1,1863,29
"1328",24,8,0.848480639409079,1,1,1,1,1,1,1830,30
"1329",24,9,0.871502429156592,1,3,-1,0,1,1,1847,31
"1330",24,10,0.876994863941442,1,1,1,1,1,1,1847,32
"1331",24,11,0.827857441363867,-1,2,1,0,1,-1,1606,31
"1332",24,12,0.863620274887092,1,3,-1,0,1,1,2134,32
"1333",24,13,0.895236424465617,1,2,1,1,1,1,1831,33
"1334",24,14,0.842371466073647,1,3,-1,0,1,1,1847,34
"1335",24,15,0.879570913902507,-1,1,-1,1,1,-1,1863,33
"1336",24,16,0.831458409918424,1,3,-1,0,1,1,1814,34
"1337",24,17,0.860881035785465,1,2,-1,0,1,1,1943,35
"1338",24,18,0.733247267127062,NA,1,NA,NA,NA,NA,NA,36
"1339",24,19,0.691447614926881,NA,2,NA,NA,NA,NA,NA,35
"1340",24,20,0.612636114617657,NA,1,NA,NA,NA,NA,NA,34
"1341",24,21,0.592346499459611,-1,1,1,0,1,-1,1814,33
"1342",24,22,0.54356398850831,NA,2,NA,NA,NA,NA,NA,34
"1343",24,23,0.439661586914567,NA,3,NA,NA,NA,NA,NA,35
"1344",24,24,0.471589652302131,NA,2,NA,NA,NA,NA,NA,36
"1345",24,25,0.484041642543652,NA,1,NA,NA,NA,NA,NA,35
"1346",24,26,0.540355593253726,1,3,-1,0,1,1,2152,36
"1347",24,27,0.613963084811019,NA,1,NA,NA,NA,NA,NA,37
"1348",24,28,0.559081625020635,NA,3,NA,NA,NA,NA,NA,36
"1349",24,29,0.486460330804464,1,2,1,1,1,1,1847,37
"1350",24,30,0.466952454065022,-1,3,1,0,1,-1,1814,36
"1351",24,31,0.432644063761757,NA,1,NA,NA,NA,NA,NA,37
"1352",24,32,0.534257441685224,NA,2,NA,NA,NA,NA,NA,36
"1353",24,33,0.402085242929403,1,1,1,1,1,1,1823,37
"1354",24,34,0.388067986312703,-1,2,1,0,1,-1,1847,36
"1355",24,35,0.365032220089845,1,3,-1,0,1,1,1885,37
"1356",24,36,0.502846605799474,1,2,-1,0,1,1,2288,38
"1357",24,37,0.404822660664262,NA,1,NA,NA,NA,NA,NA,39
"1358",24,38,0.490567830366037,NA,3,NA,NA,NA,NA,NA,38
"1359",24,39,0.352144199364912,NA,1,NA,NA,NA,NA,NA,37
"1360",24,40,0.396871393858186,-1,3,-1,1,1,-1,1841,36
"1361",24,41,0.343407659427034,1,3,-1,0,1,1,1990,37
"1362",24,42,0.264039798813973,-1,1,-1,1,1,-1,1863,36
"1363",24,43,0.211909713602947,NA,2,NA,NA,NA,NA,NA,37
"1364",24,44,0.250230900226422,NA,1,NA,NA,NA,NA,NA,38
"1365",24,45,0.22282982632666,NA,3,NA,NA,NA,NA,NA,39
"1366",24,46,0.211600592996697,NA,2,NA,NA,NA,NA,NA,40
"1367",24,47,0.152422304417765,NA,3,NA,NA,NA,NA,NA,41
"1368",24,48,0.169927707409377,NA,2,NA,NA,NA,NA,NA,42
"1369",24,49,0.133939249415645,NA,1,NA,NA,NA,NA,NA,43
"1370",24,50,0.147855759771032,-1,2,1,0,1,-1,1966,42
"1371",24,51,0.108030387047513,NA,3,NA,NA,NA,NA,NA,41
"1372",24,52,0.17147803504789,NA,1,NA,NA,NA,NA,NA,42
"1373",24,53,0.10948853705768,NA,3,NA,NA,NA,NA,NA,43
"1374",24,54,0.123522188288895,1,1,1,1,1,1,1855,44
"1375",24,55,0.127169835844622,-1,2,1,0,1,-1,1782,43
"1376",24,56,0.198865053420431,NA,1,NA,NA,NA,NA,NA,44
"1377",24,57,0.190797598993699,NA,3,NA,NA,NA,NA,NA,45
"1378",24,58,0.241332929989896,NA,2,NA,NA,NA,NA,NA,46
"1379",24,59,0.154251162354097,NA,3,NA,NA,NA,NA,NA,47
"1380",24,60,0.36995642223563,1,2,1,1,1,1,1720,48
"1381",25,1,0.411533236689866,1,3,-1,0,1,1,2448,27
"1382",25,2,0.393910897918168,NA,1,NA,NA,NA,NA,NA,28
"1383",25,3,0.351638096178905,-1,2,1,0,1,-1,2380,27
"1384",25,4,0.296434589439537,NA,1,NA,NA,NA,NA,NA,28
"1385",25,5,0.210375333868327,NA,3,NA,NA,NA,NA,NA,29
"1386",25,6,0.137315024007469,-1,2,-1,1,1,-1,2039,28
"1387",25,7,0.103488711984237,NA,3,NA,NA,NA,NA,NA,29
"1388",25,8,0.212897722524371,-1,2,1,0,1,-1,1951,28
"1389",25,9,0.224215427253774,NA,1,NA,NA,NA,NA,NA,29
"1390",25,10,0.171883890586198,-1,2,1,0,1,-1,1880,28
"1391",25,11,0.279280293139927,NA,3,NA,NA,NA,NA,NA,29
"1392",25,12,0.289327566801746,NA,1,NA,NA,NA,NA,NA,28
"1393",25,13,0.254774680062149,NA,3,NA,NA,NA,NA,NA,27
"1394",25,14,0.355684920133825,NA,1,NA,NA,NA,NA,NA,28
"1395",25,15,0.37208431144576,-1,2,1,0,1,-1,2024,27
"1396",25,16,0.366750276625335,1,1,1,1,1,1,1883,28
"1397",25,17,0.47269059867542,NA,3,NA,NA,NA,NA,NA,27
"1398",25,18,0.339629267391734,1,2,1,1,1,1,2095,28
"1399",25,19,0.474556743345079,NA,3,NA,NA,NA,NA,NA,29
"1400",25,20,0.442191452062519,1,2,1,1,1,1,2522,30
"1401",25,21,0.436101269895826,NA,1,NA,NA,NA,NA,NA,31
"1402",25,22,0.461702185421105,NA,2,NA,NA,NA,NA,NA,30
"1403",25,23,0.514200372195755,1,3,1,1,1,1,2040,31
"1404",25,24,0.59209084809766,1,2,1,1,1,1,1919,32
"1405",25,25,0.578448118339141,1,1,-1,0,1,1,2289,33
"1406",25,26,0.603324160165507,NA,3,NA,NA,NA,NA,NA,32
"1407",25,27,0.698973024002046,1,1,1,1,1,1,2022,33
"1408",25,28,0.741600192328267,1,3,-1,0,1,1,2071,34
"1409",25,29,0.737962431136639,NA,2,NA,NA,NA,NA,NA,35
"1410",25,30,0.749921591250729,1,3,-1,0,1,1,2148,36
"1411",25,31,0.678821398643423,1,1,1,1,1,1,1999,37
"1412",25,32,0.660950711776046,NA,2,NA,NA,NA,NA,NA,36
"1413",25,33,0.609244660524122,1,1,1,1,1,1,2199,37
"1414",25,34,0.503566308126416,NA,2,NA,NA,NA,NA,NA,36
"1415",25,35,0.516904821174342,-1,3,-1,1,1,-1,2055,35
"1416",25,36,0.531870485151752,NA,2,NA,NA,NA,NA,NA,36
"1417",25,37,0.65304458952124,-1,1,1,0,1,-1,2079,35
"1418",25,38,0.665956078053418,NA,3,NA,NA,NA,NA,NA,36
"1419",25,39,0.707952770467402,1,1,1,1,1,1,2136,37
"1420",25,40,0.747649643927036,NA,3,NA,NA,NA,NA,NA,36
"1421",25,41,0.731514758504337,NA,2,NA,NA,NA,NA,NA,35
"1422",25,42,0.716843758057554,NA,3,NA,NA,NA,NA,NA,36
"1423",25,43,0.803388492593211,NA,1,NA,NA,NA,NA,NA,37
"1424",25,44,0.73810273056266,NA,3,NA,NA,NA,NA,NA,36
"1425",25,45,0.727894110399146,-1,2,1,0,1,-1,1935,35
"1426",25,46,0.796377851603953,NA,1,NA,NA,NA,NA,NA,36
"1427",25,47,0.815913398794482,NA,2,NA,NA,NA,NA,NA,35
"1428",25,48,0.859940680126912,1,1,1,1,1,1,1951,36
"1429",25,49,0.621417969457798,1,3,-1,0,1,1,1904,37
"1430",25,50,0.516161872231869,-1,1,1,0,1,-1,2440,36
"1431",25,51,0.505455759728758,NA,2,NA,NA,NA,NA,NA,37
"1432",25,52,0.527588927248659,-1,3,1,0,1,-1,1929,36
"1433",25,53,0.468862688800883,NA,2,NA,NA,NA,NA,NA,35
"1434",25,54,0.467354585538601,1,3,-1,0,1,1,1904,36
"1435",25,55,0.544203968574219,1,1,1,1,1,1,2168,37
"1436",25,56,0.452000193147844,NA,3,NA,NA,NA,NA,NA,38
"1437",25,57,0.516590331181868,1,2,1,1,1,1,2080,39
"1438",25,58,0.44135536618523,NA,1,NA,NA,NA,NA,NA,38
"1439",25,59,0.4476573506471,1,2,1,1,1,1,2008,39
"1440",25,60,0.352036150670464,-1,1,-1,1,1,-1,2303,38
"1441",26,1,0.470387050276622,NA,1,NA,NA,NA,NA,NA,12
"1442",26,2,0.460090190433067,NA,2,NA,NA,NA,NA,NA,13
"1443",26,3,0.47674316660915,NA,3,NA,NA,NA,NA,NA,14
"1444",26,4,0.467835619611823,NA,2,NA,NA,NA,NA,NA,13
"1445",26,5,0.592360331213595,NA,1,NA,NA,NA,NA,NA,14
"1446",26,6,0.655935549834757,NA,3,NA,NA,NA,NA,NA,13
"1447",26,7,0.787018974350309,-1,1,1,0,1,-1,2865,12
"1448",26,8,0.796123244202583,1,3,-1,0,1,1,1989,13
"1449",26,9,0.794859692873771,-1,2,1,0,1,-1,1931,12
"1450",26,10,0.752532132763516,NA,3,NA,NA,NA,NA,NA,13
"1451",26,11,0.796753289514337,1,1,1,1,1,1,3403,14
"1452",26,12,0.803483030680403,1,2,1,1,1,1,2002,15
"1453",26,13,0.743404141805639,1,1,1,1,1,1,1955,16
"1454",26,14,0.738200044144597,1,2,1,1,1,1,2032,17
"1455",26,15,0.706418860309175,1,3,-1,0,1,1,1966,18
"1456",26,16,0.688147233615944,1,2,1,1,1,1,1955,19
"1457",26,17,0.733350729887428,NA,1,NA,NA,NA,NA,NA,18
"1458",26,18,0.716431228987573,NA,3,NA,NA,NA,NA,NA,19
"1459",26,19,0.756631994466595,1,1,1,1,1,1,2158,20
"1460",26,20,0.830418540018333,1,3,1,1,1,1,2038,21
"1461",26,21,0.796418498233529,-1,2,-1,1,1,-1,2054,20
"1462",26,22,0.795110878311368,NA,3,NA,NA,NA,NA,NA,21
"1463",26,23,0.769129428632406,1,1,1,1,1,1,3645,22
"1464",26,24,0.785788599201937,NA,3,NA,NA,NA,NA,NA,21
"1465",26,25,0.623143368899375,-1,2,1,0,1,-1,1833,20
"1466",26,26,0.461754208131827,NA,1,NA,NA,NA,NA,NA,21
"1467",26,27,0.492647890346726,NA,2,NA,NA,NA,NA,NA,22
"1468",26,28,0.6147660281874,-1,1,1,0,1,-1,2135,21
"1469",26,29,0.717655549674147,1,3,-1,0,1,1,3624,22
"1470",26,30,0.665942835613171,1,1,1,1,1,1,1882,23
"1471",26,31,0.623339607466781,1,2,-1,0,1,1,1834,24
"1472",26,32,0.629535109640321,-1,3,-1,1,1,-1,1836,23
"1473",26,33,0.520077017858434,-1,2,1,0,1,-1,1902,22
"1474",26,34,0.559149377755175,NA,3,NA,NA,NA,NA,NA,21
"1475",26,35,0.521024351835413,NA,1,NA,NA,NA,NA,NA,22
"1476",26,36,0.418240634891833,-1,3,-1,1,1,-1,1868,21
"1477",26,37,0.377811025266363,1,2,1,1,1,1,2538,22
"1478",26,38,0.342773964473507,NA,1,NA,NA,NA,NA,NA,23
"1479",26,39,0.257851946871617,NA,2,NA,NA,NA,NA,NA,24
"1480",26,40,0.34680413473894,NA,1,NA,NA,NA,NA,NA,23
"1481",26,41,0.305498311477726,NA,3,NA,NA,NA,NA,NA,24
"1482",26,42,0.307519078762204,NA,1,NA,NA,NA,NA,NA,25
"1483",26,43,0.231539726645966,NA,2,NA,NA,NA,NA,NA,24
"1484",26,44,0.24467400277586,NA,1,NA,NA,NA,NA,NA,25
"1485",26,45,0.182364813103011,NA,3,NA,NA,NA,NA,NA,26
"1486",26,46,0.233888095123525,-1,2,1,0,1,-1,2473,25
"1487",26,47,0.333627716971074,NA,3,NA,NA,NA,NA,NA,26
"1488",26,48,0.209264274795133,NA,2,NA,NA,NA,NA,NA,27
"1489",26,49,0.179601400248358,-1,1,1,0,1,-1,2160,26
"1490",26,50,0.140126444575126,-1,2,1,0,1,-1,3189,25
"1491",26,51,0.372228949324243,1,3,-1,0,1,1,1862,26
"1492",26,52,0.359323382042142,NA,1,NA,NA,NA,NA,NA,25
"1493",26,53,0.306196323463352,1,3,-1,0,1,1,2244,26
"1494",26,54,0.296715985615596,1,1,1,1,1,1,2006,27
"1495",26,55,0.310507758670621,1,2,1,1,1,1,2590,28
"1496",26,56,0.16927138432147,NA,1,NA,NA,NA,NA,NA,29
"1497",26,57,0.200863455284654,NA,3,NA,NA,NA,NA,NA,30
"1498",26,58,0.179817872854735,NA,2,NA,NA,NA,NA,NA,31
"1499",26,59,0.119819733683273,NA,3,NA,NA,NA,NA,NA,32
"1500",26,60,0.11035035999377,NA,2,NA,NA,NA,NA,NA,33
"1501",27,1,0.559809442609549,-1,3,-1,1,1,-1,3981,-13
"1502",27,2,0.59294535147595,NA,1,NA,NA,NA,NA,NA,-14
"1503",27,3,0.512458098670486,1,2,1,1,1,1,4719,-13
"1504",27,4,0.389533055732986,-1,1,1,0,1,-1,2435,-14
"1505",27,5,0.441153588385739,NA,3,NA,NA,NA,NA,NA,-13
"1506",27,6,0.449184425644701,1,2,-1,0,1,1,2804,-12
"1507",27,7,0.307632719057957,-1,3,-1,1,1,-1,2289,-13
"1508",27,8,0.345038495373926,NA,2,NA,NA,NA,NA,NA,-12
"1509",27,9,0.352473416623348,1,1,1,1,1,1,3375,-11
"1510",27,10,0.346923794387337,NA,2,NA,NA,NA,NA,NA,-10
"1511",27,11,0.284894829223213,NA,3,NA,NA,NA,NA,NA,-9
"1512",27,12,0.322559935379691,NA,1,NA,NA,NA,NA,NA,-8
"1513",27,13,0.336206224605509,NA,3,NA,NA,NA,NA,NA,-7
"1514",27,14,0.337754713847591,NA,1,NA,NA,NA,NA,NA,-6
"1515",27,15,0.332972655500729,-1,2,-1,1,1,-1,3960,-7
"1516",27,16,0.323484755843726,1,1,1,1,1,1,3432,-6
"1517",27,17,0.281417772458889,-1,3,1,0,1,-1,2240,-7
"1518",27,18,0.43507200264306,NA,2,NA,NA,NA,NA,NA,-8
"1519",27,19,0.341391990907294,-1,3,-1,1,1,-1,2127,-9
"1520",27,20,0.352499291583905,1,2,1,1,1,1,2094,-8
"1521",27,21,0.284807831890872,-1,2,-1,1,1,-1,4570,-9
"1522",27,22,0.225130978982558,NA,3,NA,NA,NA,NA,NA,-8
"1523",27,23,0.347439766842478,-1,1,1,0,1,-1,2055,-9
"1524",27,24,0.587218099231795,NA,3,NA,NA,NA,NA,NA,-10
"1525",27,25,0.673057674051614,1,2,1,1,1,1,2851,-9
"1526",27,26,0.687184466343686,NA,1,NA,NA,NA,NA,NA,-8
"1527",27,27,0.683657758941361,1,2,-1,0,1,1,2897,-7
"1528",27,28,0.721580224347822,1,1,1,1,1,1,1917,-6
"1529",27,29,0.84359982196466,1,3,-1,0,1,1,2196,-5
"1530",27,30,0.855983873032585,NA,1,NA,NA,NA,NA,NA,-6
"1531",27,31,0.827939846451057,NA,2,NA,NA,NA,NA,NA,-7
"1532",27,32,0.773318814277571,NA,3,NA,NA,NA,NA,NA,-8
"1533",27,33,0.722628172637112,-1,2,1,0,1,-1,2186,-9
"1534",27,34,0.616744179431641,NA,3,NA,NA,NA,NA,NA,-10
"1535",27,35,0.642770397270155,1,1,1,1,1,1,2046,-9
"1536",27,36,0.59471869917581,NA,3,NA,NA,NA,NA,NA,-8
"1537",27,37,0.569641573051429,1,2,1,1,1,1,2040,-7
"1538",27,38,0.564606445191764,NA,1,NA,NA,NA,NA,NA,-6
"1539",27,39,0.512628266064466,NA,2,NA,NA,NA,NA,NA,-5
"1540",27,40,0.428783670576134,1,1,1,1,1,1,2188,-4
"1541",27,41,0.441761882367362,NA,1,NA,NA,NA,NA,NA,-5
"1542",27,42,0.440233807636798,-1,2,1,0,1,-1,2158,-6
"1543",27,43,0.469761050964781,NA,3,NA,NA,NA,NA,NA,-7
"1544",27,44,0.522673532355907,NA,2,NA,NA,NA,NA,NA,-8
"1545",27,45,0.558797321359188,1,1,1,1,1,1,1785,-7
"1546",27,46,0.590965378040438,NA,3,NA,NA,NA,NA,NA,-8
"1547",27,47,0.594233586389804,1,1,1,1,1,1,2142,-7
"1548",27,48,0.700847454023936,1,3,-1,0,1,1,2927,-6
"1549",27,49,0.714529689952483,1,2,-1,0,1,1,4426,-5
"1550",27,50,0.717507817633596,NA,3,NA,NA,NA,NA,NA,-4
"1551",27,51,0.624012913104982,1,1,1,1,1,1,2444,-3
"1552",27,52,0.530601411176044,NA,2,NA,NA,NA,NA,NA,-2
"1553",27,53,0.582583118162551,1,1,1,1,1,1,2195,-1
"1554",27,54,0.633618557272145,-1,2,1,0,1,-1,2316,-2
"1555",27,55,0.598743680885621,NA,3,NA,NA,NA,NA,NA,-1
"1556",27,56,0.653088480128583,NA,2,NA,NA,NA,NA,NA,-2
"1557",27,57,0.627696557267845,NA,1,NA,NA,NA,NA,NA,-1
"1558",27,58,0.523045238746015,NA,3,NA,NA,NA,NA,NA,0
"1559",27,59,0.398254102972834,1,1,1,1,1,1,2011,1
"1560",27,60,0.450527345611642,NA,3,NA,NA,NA,NA,NA,2
"1561",28,1,0.432700770627707,-1,1,-1,1,1,-1,1582,5
"1562",28,2,0.451701521130388,NA,2,NA,NA,NA,NA,NA,5
"1563",28,3,0.460507229527707,NA,3,NA,NA,NA,NA,NA,4
"1564",28,4,0.731835559557209,NA,2,NA,NA,NA,NA,NA,5
"1565",28,5,0.768463533553296,NA,1,NA,NA,NA,NA,NA,4
"1566",28,6,0.698713918696348,NA,3,NA,NA,NA,NA,NA,3
"1567",28,7,0.77010495764087,NA,1,NA,NA,NA,NA,NA,2
"1568",28,8,0.805587035060275,1,3,-1,0,1,1,2141,3
"1569",28,9,0.858255126260805,1,2,1,1,1,1,1907,4
"1570",28,10,0.822993130404862,NA,3,NA,NA,NA,NA,NA,5
"1571",28,11,0.866467352110029,NA,1,NA,NA,NA,NA,NA,4
"1572",28,12,0.775417420502721,1,2,-1,0,1,1,3938,5
"1573",28,13,0.772216910544477,-1,1,-1,1,1,-1,2441,4
"1574",28,14,0.652465287828881,1,2,-1,0,1,1,1940,5
"1575",28,15,0.825451334311021,NA,3,NA,NA,NA,NA,NA,4
"1576",28,16,0.658468002425493,-1,2,-1,1,1,-1,2345,3
"1577",28,17,0.680821029579163,1,1,1,1,1,1,2218,4
"1578",28,18,0.538587203493598,1,3,1,1,1,1,2238,5
"1579",28,19,0.618992179538856,1,1,1,1,1,1,1517,6
"1580",28,20,0.504755801003681,-1,3,1,0,1,-1,2367,5
"1581",28,21,0.468904122356759,NA,3,NA,NA,NA,NA,NA,4
"1582",28,22,0.389444735851973,1,1,-1,0,1,1,1955,5
"1583",28,23,0.41086495646251,-1,2,1,0,1,-1,2154,4
"1584",28,24,0.443499328517829,1,1,-1,0,1,1,2110,5
"1585",28,25,0.442404014263535,1,3,-1,0,1,1,2388,6
"1586",28,26,0.433659623426691,NA,2,NA,NA,NA,NA,NA,7
"1587",28,27,0.298098250270298,1,3,-1,0,1,1,2189,8
"1588",28,28,0.276067552029156,NA,2,NA,NA,NA,NA,NA,9
"1589",28,29,0.322688950764573,-1,1,-1,1,1,-1,1514,8
"1590",28,30,0.358211623254366,NA,2,NA,NA,NA,NA,NA,9
"1591",28,31,0.451407865356686,NA,3,NA,NA,NA,NA,NA,10
"1592",28,32,0.454501163471602,-1,1,-1,1,1,-1,2204,9
"1593",28,33,0.403170542056181,NA,3,NA,NA,NA,NA,NA,8
"1594",28,34,0.467870214933245,NA,1,NA,NA,NA,NA,NA,8
"1595",28,35,0.504461972969192,NA,2,NA,NA,NA,NA,NA,9
"1596",28,36,0.559096821563509,NA,1,NA,NA,NA,NA,NA,9
"1597",28,37,0.525115670810928,1,3,-1,0,1,1,5439,10
"1598",28,38,0.394237444667635,1,2,1,1,1,1,2471,11
"1599",28,39,0.259839745028216,-1,3,1,0,1,-1,3328,10
"1600",28,40,0.245483640160521,-1,2,-1,1,1,-1,2499,9
"1601",28,41,0.141344469946946,-1,2,-1,1,1,-1,2124,8
"1602",28,42,0.194368072248398,NA,3,NA,NA,NA,NA,NA,8
"1603",28,43,0.147442976720293,-1,1,-1,1,1,-1,4329,7
"1604",28,44,0.23212382023806,1,3,-1,0,1,1,3139,8
"1605",28,45,0.311516847561857,NA,2,NA,NA,NA,NA,NA,8
"1606",28,46,0.299547365817444,NA,1,NA,NA,NA,NA,NA,9
"1607",28,47,0.203551497437317,-1,2,-1,1,1,-1,2122,8
"1608",28,48,0.188508351465372,NA,1,NA,NA,NA,NA,NA,9
"1609",28,49,0.274555946777076,-1,3,1,0,1,-1,1989,8
"1610",28,50,0.358028850570148,NA,1,NA,NA,NA,NA,NA,7
"1611",28,51,0.350930699308122,-1,2,1,0,1,-1,2206,6
"1612",28,52,0.481684454274514,1,3,-1,0,1,1,2845,7
"1613",28,53,0.597777923414729,NA,2,NA,NA,NA,NA,NA,6
"1614",28,54,0.715970106366002,1,3,-1,0,1,1,4704,7
"1615",28,55,0.588630938244989,-1,1,-1,1,1,-1,4784,6
"1616",28,56,0.747761426927994,1,3,-1,0,1,1,2722,7
"1617",28,57,0.687579082781804,NA,2,NA,NA,NA,NA,NA,8
"1618",28,58,0.603265986389361,NA,1,NA,NA,NA,NA,NA,9
"1619",28,59,0.431242789568454,NA,2,NA,NA,NA,NA,NA,10
"1620",28,60,0.421273389441721,NA,1,NA,NA,NA,NA,NA,9
"1621",29,1,0.535246866568923,1,3,-1,0,1,1,3017,14
"1622",29,2,0.528339086294806,1,1,1,1,1,1,2606,15
"1623",29,3,0.565100238944852,NA,2,NA,NA,NA,NA,NA,16
"1624",29,4,0.55944706076572,NA,1,NA,NA,NA,NA,NA,17
"1625",29,5,0.572862118416354,NA,3,NA,NA,NA,NA,NA,18
"1626",29,6,0.599567344210489,NA,2,NA,NA,NA,NA,NA,19
"1627",29,7,0.573433716220562,1,3,1,1,1,1,2151,20
"1628",29,8,0.475728769959646,1,2,1,1,1,1,1870,21
"1629",29,9,0.422279096982832,-1,1,-1,1,1,-1,1823,20
"1630",29,10,0.413418777120077,NA,2,NA,NA,NA,NA,NA,19
"1631",29,11,0.289116839644214,NA,3,NA,NA,NA,NA,NA,20
"1632",29,12,0.340115235759668,-1,1,-1,1,1,-1,3380,19
"1633",29,13,0.270446943947198,NA,3,NA,NA,NA,NA,NA,18
"1634",29,14,0.244713159650946,NA,1,NA,NA,NA,NA,NA,19
"1635",29,15,0.358906608473426,1,2,1,1,1,1,2296,20
"1636",29,16,0.449624016359599,NA,1,NA,NA,NA,NA,NA,21
"1637",29,17,0.379285374657329,NA,3,NA,NA,NA,NA,NA,20
"1638",29,18,0.374173177116081,-1,2,1,0,1,-1,2200,19
"1639",29,19,0.261859660275682,1,3,-1,0,1,1,2470,20
"1640",29,20,0.153023622905366,NA,2,NA,NA,NA,NA,NA,21
"1641",29,21,0.113471496068345,-1,2,1,0,1,-1,2391,20
"1642",29,22,0.176813385963338,-1,3,-1,1,1,-1,1911,19
"1643",29,23,0.176809232986566,-1,1,1,0,1,-1,1902,18
"1644",29,24,0.261921314981082,1,3,-1,0,1,1,1880,19
"1645",29,25,0.185486126644885,-1,2,1,0,1,-1,1927,18
"1646",29,26,0.145501231792237,NA,1,NA,NA,NA,NA,NA,19
"1647",29,27,0.233266051069889,NA,2,NA,NA,NA,NA,NA,18
"1648",29,28,0.246556349396679,-1,1,1,0,1,-1,2309,17
"1649",29,29,0.184999451528944,1,3,-1,0,1,1,2536,18
"1650",29,30,0.194121056528083,-1,1,-1,1,1,-1,2390,17
"1651",29,31,0.238128205013687,-1,2,-1,1,1,-1,2599,16
"1652",29,32,0.391756118803418,1,3,-1,0,1,1,1855,17
"1653",29,33,0.365223873179069,-1,2,-1,1,1,-1,2127,16
"1654",29,34,0.366795314616121,NA,3,NA,NA,NA,NA,NA,17
"1655",29,35,0.289881767446917,1,1,1,1,1,1,1902,18
"1656",29,36,0.359290949744061,NA,3,NA,NA,NA,NA,NA,19
"1657",29,37,0.355205272899998,NA,2,NA,NA,NA,NA,NA,20
"1658",29,38,0.457799797062487,NA,1,NA,NA,NA,NA,NA,21
"1659",29,39,0.496412632058288,1,2,-1,0,1,1,1919,22
"1660",29,40,0.471220787921214,NA,1,NA,NA,NA,NA,NA,21
"1661",29,41,0.598029051416089,NA,1,NA,NA,NA,NA,NA,22
"1662",29,42,0.615736562155567,NA,2,NA,NA,NA,NA,NA,23
"1663",29,43,0.715182152308248,-1,3,-1,1,1,-1,1863,22
"1664",29,44,0.748523364416264,1,2,1,1,1,1,2750,23
"1665",29,45,0.758249785890972,NA,1,NA,NA,NA,NA,NA,22
"1666",29,46,0.751737300940139,1,3,-1,0,1,1,2886,23
"1667",29,47,0.718689658817209,-1,1,1,0,1,-1,2090,22
"1668",29,48,0.795913644693222,NA,3,NA,NA,NA,NA,NA,21
"1669",29,49,0.678078611495595,NA,2,NA,NA,NA,NA,NA,22
"1670",29,50,0.761320159589527,1,3,-1,0,1,1,2511,23
"1671",29,51,0.807482932762123,1,1,1,1,1,1,2431,24
"1672",29,52,0.76573391518118,1,2,-1,0,1,1,3063,25
"1673",29,53,0.789314433640646,1,1,1,1,1,1,2408,26
"1674",29,54,0.878338992388836,NA,2,NA,NA,NA,NA,NA,25
"1675",29,55,0.888428394769825,NA,3,NA,NA,NA,NA,NA,24
"1676",29,56,0.832177485845419,NA,2,NA,NA,NA,NA,NA,23
"1677",29,57,0.742449469545556,1,1,1,1,1,1,1687,24
"1678",29,58,0.75297287328364,1,3,1,1,1,1,1910,25
"1679",29,59,0.861291318860444,1,1,1,1,1,1,1817,26
"1680",29,60,0.768197965542524,-1,3,1,0,1,-1,2022,25
"1681",30,1,0.503533480595797,NA,2,NA,NA,NA,NA,NA,21
"1682",30,2,0.51412124642831,NA,3,NA,NA,NA,NA,NA,22
"1683",30,3,0.563456450108601,1,1,1,1,1,1,1978,23
"1684",30,4,0.597922545093432,-1,3,-1,1,1,-1,1860,22
"1685",30,5,0.659293861906726,NA,2,NA,NA,NA,NA,NA,21
"1686",30,6,0.687683624933664,NA,1,NA,NA,NA,NA,NA,22
"1687",30,7,0.653211117563595,NA,2,NA,NA,NA,NA,NA,21
"1688",30,8,0.701009415609454,NA,1,NA,NA,NA,NA,NA,22
"1689",30,9,0.660122506922128,NA,3,NA,NA,NA,NA,NA,23
"1690",30,10,0.812132341282581,1,1,1,1,1,1,2104,24
"1691",30,11,0.866972044124029,NA,2,NA,NA,NA,NA,NA,23
"1692",30,12,0.833886075556066,NA,3,NA,NA,NA,NA,NA,22
"1693",30,13,0.806986008299129,NA,2,NA,NA,NA,NA,NA,21
"1694",30,14,0.861083217718226,NA,3,NA,NA,NA,NA,NA,20
"1695",30,15,0.79768694417905,1,1,1,1,1,1,1798,21
"1696",30,16,0.797759293789064,1,3,-1,0,1,1,1773,22
"1697",30,17,0.826109687509472,-1,2,1,0,1,-1,1864,21
"1698",30,18,0.807935081438744,-1,1,1,0,1,-1,2285,20
"1699",30,19,0.823946519941973,NA,2,NA,NA,NA,NA,NA,19
"1700",30,20,0.676235488724097,-1,1,1,0,1,-1,1898,18
"1701",30,21,0.605567722675968,NA,1,NA,NA,NA,NA,NA,17
"1702",30,22,0.555603771748268,1,2,1,1,1,1,1956,18
"1703",30,23,0.59316882104573,1,3,-1,0,1,1,2262,19
"1704",30,24,0.605491941335438,-1,2,-1,1,1,-1,1851,18
"1705",30,25,0.576208215298666,1,1,1,1,1,1,1852,19
"1706",30,26,0.429873035781092,-1,3,1,0,1,-1,1903,18
"1707",30,27,0.355328291010139,NA,1,NA,NA,NA,NA,NA,19
"1708",30,28,0.313132341470295,NA,3,NA,NA,NA,NA,NA,20
"1709",30,29,0.284952474556034,NA,2,NA,NA,NA,NA,NA,19
"1710",30,30,0.203798242467044,NA,3,NA,NA,NA,NA,NA,20
"1711",30,31,0.363782015951917,NA,1,NA,NA,NA,NA,NA,21
"1712",30,32,0.35936673635097,1,2,1,1,1,1,1857,22
"1713",30,33,0.319632763644433,1,1,1,1,1,1,1823,23
"1714",30,34,0.475837195064284,1,2,1,1,1,1,1950,24
"1715",30,35,0.534733212253666,-1,3,1,0,1,-1,1747,23
"1716",30,36,0.551583760745646,-1,2,1,0,1,-1,1858,22
"1717",30,37,0.558563752025432,NA,1,NA,NA,NA,NA,NA,21
"1718",30,38,0.620646135357765,1,3,1,1,1,1,2035,22
"1719",30,39,0.583675840044262,1,1,1,1,1,1,1919,23
"1720",30,40,0.543289269559111,-1,3,1,0,1,-1,1801,22
"1721",30,41,0.499707164087168,NA,3,NA,NA,NA,NA,NA,23
"1722",30,42,0.404239104234509,NA,1,NA,NA,NA,NA,NA,24
"1723",30,43,0.433214440259828,1,2,1,1,1,1,2085,25
"1724",30,44,0.388082891132283,-1,1,1,0,1,-1,1810,24
"1725",30,45,0.38606908152407,-1,3,-1,1,1,-1,1816,23
"1726",30,46,0.342179410742581,NA,2,NA,NA,NA,NA,NA,22
"1727",30,47,0.279968208918744,NA,3,NA,NA,NA,NA,NA,21
"1728",30,48,0.214285928481946,NA,2,NA,NA,NA,NA,NA,22
"1729",30,49,0.20455281914402,1,1,1,1,1,1,1863,23
"1730",30,50,0.114813894361175,1,2,1,1,1,1,2249,24
"1731",30,51,0.11882285458447,-1,3,1,0,1,-1,1834,23
"1732",30,52,0.123348620725725,NA,1,NA,NA,NA,NA,NA,24
"1733",30,53,0.161481120578717,-1,3,1,0,1,-1,1658,23
"1734",30,54,0.1411708411847,NA,1,NA,NA,NA,NA,NA,24
"1735",30,55,0.162793254482147,NA,2,NA,NA,NA,NA,NA,25
"1736",30,56,0.195165990871725,NA,1,NA,NA,NA,NA,NA,26
"1737",30,57,0.233235753650709,NA,3,NA,NA,NA,NA,NA,27
"1738",30,58,0.255394197547292,NA,2,NA,NA,NA,NA,NA,26
"1739",30,59,0.23104390818927,NA,3,NA,NA,NA,NA,NA,27
"1740",30,60,0.150682353180488,-1,2,1,0,1,-1,1798,26
"1741",31,1,0.468155388394371,NA,3,NA,NA,NA,NA,NA,18
"1742",31,2,0.500629729078766,NA,1,NA,NA,NA,NA,NA,17
"1743",31,3,0.500960568241567,1,2,1,1,1,1,2174,18
"1744",31,4,0.406022943032106,1,1,1,1,1,1,2334,19
"1745",31,5,0.383727176384423,NA,3,NA,NA,NA,NA,NA,20
"1746",31,6,0.38367360246981,1,2,1,1,1,1,2205,21
"1747",31,7,0.398200853413571,1,3,-1,0,1,1,1975,22
"1748",31,8,0.398352565819517,-1,2,1,0,1,-1,1983,21
"1749",31,9,0.383724115622137,-1,1,1,0,1,-1,1967,20
"1750",31,10,0.419077065657142,NA,2,NA,NA,NA,NA,NA,21
"1751",31,11,0.459920792809088,1,3,-1,0,1,1,1903,22
"1752",31,12,0.504125821748319,1,1,1,1,1,1,2078,23
"1753",31,13,0.46794380874696,NA,3,NA,NA,NA,NA,NA,24
"1754",31,14,0.47966662386199,-1,1,-1,1,1,-1,1607,23
"1755",31,15,0.399953723560221,-1,2,1,0,1,-1,2254,22
"1756",31,16,0.373457916921915,NA,1,NA,NA,NA,NA,NA,23
"1757",31,17,0.415918072931703,NA,3,NA,NA,NA,NA,NA,24
"1758",31,18,0.410295850000517,-1,2,1,0,1,-1,2439,23
"1759",31,19,0.276083395712995,NA,3,NA,NA,NA,NA,NA,24
"1760",31,20,0.333166503954134,NA,2,NA,NA,NA,NA,NA,25
"1761",31,21,0.33454149142722,NA,1,NA,NA,NA,NA,NA,26
"1762",31,22,0.239343341256601,NA,2,NA,NA,NA,NA,NA,27
"1763",31,23,0.314065988833113,-1,3,-1,1,1,-1,4265,26
"1764",31,24,0.311072152545259,NA,2,NA,NA,NA,NA,NA,27
"1765",31,25,0.348452325790702,-1,1,1,0,1,-1,2257,26
"1766",31,26,0.475121382279842,-1,3,1,0,1,-1,2439,25
"1767",31,27,0.410747927481324,1,1,1,1,1,1,2031,26
"1768",31,28,0.448617759226258,1,3,-1,0,1,1,2136,27
"1769",31,29,0.509132329325235,-1,2,1,0,1,-1,2029,26
"1770",31,30,0.605419879147082,NA,3,NA,NA,NA,NA,NA,25
"1771",31,31,0.656366616141381,NA,1,NA,NA,NA,NA,NA,26
"1772",31,32,0.717950658744494,NA,2,NA,NA,NA,NA,NA,25
"1773",31,33,0.713606315524901,1,1,1,1,1,1,1956,26
"1774",31,34,0.62765846656399,1,2,1,1,1,1,1830,27
"1775",31,35,0.660232526500679,-1,3,1,0,1,-1,2407,26
"1776",31,36,0.756135808320874,NA,2,NA,NA,NA,NA,NA,25
"1777",31,37,0.739052799997933,NA,1,NA,NA,NA,NA,NA,24
"1778",31,38,0.613694419386793,1,3,-1,0,1,1,2112,25
"1779",31,39,0.637148502747732,1,1,-1,0,1,1,2286,26
"1780",31,40,0.548564969397674,-1,3,1,0,1,-1,2079,25
"1781",31,41,0.526706491937694,NA,2,NA,NA,NA,NA,NA,24
"1782",31,42,0.543109822392313,1,3,-1,0,1,1,2112,25
"1783",31,43,0.65015384437814,NA,1,NA,NA,NA,NA,NA,26
"1784",31,44,0.59441088820609,1,3,-1,0,1,1,2335,27
"1785",31,45,0.671983092342419,1,2,-1,0,1,1,2126,28
"1786",31,46,0.635158848875328,NA,1,NA,NA,NA,NA,NA,29
"1787",31,47,0.718685994652878,NA,2,NA,NA,NA,NA,NA,28
"1788",31,48,0.744922601392913,1,1,1,1,1,1,2447,29
"1789",31,49,0.88372586328184,NA,3,NA,NA,NA,NA,NA,28
"1790",31,50,0.876539717541504,1,1,1,1,1,1,1790,29
"1791",31,51,0.799337057715657,NA,2,NA,NA,NA,NA,NA,28
"1792",31,52,0.767191690934809,NA,3,NA,NA,NA,NA,NA,27
"1793",31,53,0.638806783173334,NA,2,NA,NA,NA,NA,NA,26
"1794",31,54,0.538053977545629,NA,3,NA,NA,NA,NA,NA,25
"1795",31,55,0.499414171016256,NA,1,NA,NA,NA,NA,NA,26
"1796",31,56,0.520470576477463,NA,3,NA,NA,NA,NA,NA,27
"1797",31,57,0.544631478503684,1,2,1,1,1,1,2254,28
"1798",31,58,0.4496139491187,1,1,1,1,1,1,1967,29
"1799",31,59,0.406052596261607,1,2,1,1,1,1,1903,30
"1800",31,60,0.436237678745871,1,1,1,1,1,1,2502,31
"1801",32,1,0.485915162449021,NA,3,NA,NA,NA,NA,NA,13
"1802",32,2,0.493874589126096,1,1,1,1,1,1,2040,14
"1803",32,3,0.387599351080349,-1,2,1,0,1,-1,2601,13
"1804",32,4,0.33009435026489,NA,1,NA,NA,NA,NA,NA,14
"1805",32,5,0.308567011495766,-1,3,-1,1,1,-1,1894,13
"1806",32,6,0.258942618981201,-1,2,1,0,1,-1,1941,12
"1807",32,7,0.181441023034643,1,3,-1,0,1,1,2372,13
"1808",32,8,0.188734677000586,1,2,1,1,1,1,1854,14
"1809",32,9,0.198415939905467,-1,1,1,0,1,-1,1847,13
"1810",32,10,0.242867248441907,NA,2,NA,NA,NA,NA,NA,14
"1811",32,11,0.15753505562432,NA,3,NA,NA,NA,NA,NA,15
"1812",32,12,0.20203366212827,-1,1,1,0,1,-1,1893,14
"1813",32,13,0.250846511690847,-1,3,-1,1,1,-1,1814,13
"1814",32,14,0.319254340837071,1,1,1,1,1,1,2113,14
"1815",32,15,0.293797903458229,NA,2,NA,NA,NA,NA,NA,15
"1816",32,16,0.285891924471908,NA,1,NA,NA,NA,NA,NA,16
"1817",32,17,0.246558809379344,NA,3,NA,NA,NA,NA,NA,17
"1818",32,18,0.437226923585737,NA,2,NA,NA,NA,NA,NA,16
"1819",32,19,0.409326405295506,-1,3,1,0,1,-1,2124,15
"1820",32,20,0.389725684216707,NA,2,NA,NA,NA,NA,NA,16
"1821",32,21,0.475265523512918,1,2,1,1,1,1,2022,17
"1822",32,22,0.519080934709062,NA,3,NA,NA,NA,NA,NA,16
"1823",32,23,0.504123274502812,1,1,1,1,1,1,1877,17
"1824",32,24,0.58340544941219,NA,3,NA,NA,NA,NA,NA,16
"1825",32,25,0.561592903563825,1,2,1,1,1,1,1857,17
"1826",32,26,0.637761249377942,1,1,1,1,1,1,2363,18
"1827",32,27,0.623518298932207,NA,2,NA,NA,NA,NA,NA,17
"1828",32,28,0.610889399961287,1,1,1,1,1,1,1926,18
"1829",32,29,0.544892618992029,1,3,-1,0,1,1,1938,19
"1830",32,30,0.509013511562756,NA,1,NA,NA,NA,NA,NA,20
"1831",32,31,0.462842426400304,-1,2,1,0,1,-1,1992,19
"1832",32,32,0.485814504400254,NA,3,NA,NA,NA,NA,NA,20
"1833",32,33,0.466877241594864,-1,2,1,0,1,-1,2745,19
"1834",32,34,0.449926349272555,1,3,-1,0,1,1,2550,20
"1835",32,35,0.423702593775673,1,1,1,1,1,1,1868,21
"1836",32,36,0.398471220202209,NA,3,NA,NA,NA,NA,NA,22
"1837",32,37,0.507060510516679,NA,2,NA,NA,NA,NA,NA,21
"1838",32,38,0.535453620631956,NA,1,NA,NA,NA,NA,NA,20
"1839",32,39,0.525510387871066,1,2,1,1,1,1,1909,21
"1840",32,40,0.626427789723751,NA,1,NA,NA,NA,NA,NA,22
"1841",32,41,0.590275138397309,NA,1,NA,NA,NA,NA,NA,23
"1842",32,42,0.612284002183954,NA,2,NA,NA,NA,NA,NA,22
"1843",32,43,0.669346614336061,-1,3,-1,1,1,-1,2003,21
"1844",32,44,0.625234618486498,1,2,1,1,1,1,3062,22
"1845",32,45,0.586725929510462,1,1,1,1,1,1,2030,23
"1846",32,46,0.596394390391518,1,3,-1,0,1,1,1901,24
"1847",32,47,0.633923845846978,NA,1,NA,NA,NA,NA,NA,25
"1848",32,48,0.654750530179393,1,3,-1,0,1,1,1853,26
"1849",32,49,0.706036196703267,NA,2,NA,NA,NA,NA,NA,27
"1850",32,50,0.652776289181606,1,3,-1,0,1,1,2785,28
"1851",32,51,0.677668751427994,-1,1,1,0,1,-1,1918,27
"1852",32,52,0.709790435283011,NA,2,NA,NA,NA,NA,NA,26
"1853",32,53,0.738416766340261,1,1,1,1,1,1,2023,27
"1854",32,54,0.71322992927495,-1,2,1,0,1,-1,2723,26
"1855",32,55,0.826162410982581,NA,3,NA,NA,NA,NA,NA,27
"1856",32,56,0.85430779916517,NA,2,NA,NA,NA,NA,NA,26
"1857",32,57,0.848066951061541,NA,1,NA,NA,NA,NA,NA,25
"1858",32,58,0.85747145124521,NA,3,NA,NA,NA,NA,NA,24
"1859",32,59,0.893100807629215,1,1,1,1,1,1,1955,25
"1860",32,60,0.856724116655176,1,3,-1,0,1,1,1881,26
"1861",33,1,0.510610806488496,1,2,-1,0,1,1,3169,17
"1862",33,2,0.56127732918907,NA,3,NA,NA,NA,NA,NA,16
"1863",33,3,0.568499367308645,NA,1,NA,NA,NA,NA,NA,17
"1864",33,4,0.653872514684261,NA,3,NA,NA,NA,NA,NA,18
"1865",33,5,0.674952715352923,NA,2,NA,NA,NA,NA,NA,19
"1866",33,6,0.572669421004745,NA,1,NA,NA,NA,NA,NA,20
"1867",33,7,0.600417895154134,NA,2,NA,NA,NA,NA,NA,21
"1868",33,8,0.55589502341208,1,1,1,1,1,1,2079,22
"1869",33,9,0.715133690228228,NA,3,NA,NA,NA,NA,NA,23
"1870",33,10,0.705070699428851,NA,1,NA,NA,NA,NA,NA,24
"1871",33,11,0.647725954416201,NA,2,NA,NA,NA,NA,NA,23
"1872",33,12,0.582037363522115,NA,3,NA,NA,NA,NA,NA,22
"1873",33,13,0.55103249747075,NA,2,NA,NA,NA,NA,NA,21
"1874",33,14,0.628102194914979,1,3,-1,0,1,1,2413,22
"1875",33,15,0.712485120292524,1,1,1,1,1,1,2039,23
"1876",33,16,0.638521156929532,NA,3,NA,NA,NA,NA,NA,22
"1877",33,17,0.604791583246263,1,2,1,1,1,1,2059,23
"1878",33,18,0.680454872904341,NA,1,NA,NA,NA,NA,NA,24
"1879",33,19,0.672743602122773,1,2,1,1,1,1,2247,25
"1880",33,20,0.707573379945366,-1,1,1,0,1,-1,2175,24
"1881",33,21,0.632452444359546,1,3,-1,0,1,1,2119,25
"1882",33,22,0.731970888056761,-1,1,1,0,1,-1,2102,24
"1883",33,23,0.827211002460176,NA,2,NA,NA,NA,NA,NA,23
"1884",33,24,0.867628850457417,1,1,1,1,1,1,1966,24
"1885",33,25,0.804397382233644,1,3,-1,0,1,1,2398,25
"1886",33,26,0.658744838174955,NA,2,NA,NA,NA,NA,NA,26
"1887",33,27,0.580448664541754,1,3,-1,0,1,1,2415,27
"1888",33,28,0.53600455746433,-1,2,1,0,1,-1,2375,26
"1889",33,29,0.510457095855081,-1,1,1,0,1,-1,2147,25
"1890",33,30,0.441600803930527,-1,2,-1,1,1,-1,2194,24
"1891",33,31,0.447812858608471,NA,3,NA,NA,NA,NA,NA,25
"1892",33,32,0.542966029635647,NA,1,NA,NA,NA,NA,NA,26
"1893",33,33,0.645099391680317,1,3,-1,0,1,1,2039,27
"1894",33,34,0.657593609856378,1,1,1,1,1,1,2270,28
"1895",33,35,0.518320533867469,NA,2,NA,NA,NA,NA,NA,27
"1896",33,36,0.575592557715119,NA,1,NA,NA,NA,NA,NA,28
"1897",33,37,0.439918862935958,NA,3,NA,NA,NA,NA,NA,27
"1898",33,38,0.342679825190966,NA,2,NA,NA,NA,NA,NA,28
"1899",33,39,0.256233171463331,-1,3,-1,1,1,-1,2063,27
"1900",33,40,0.302339184879358,1,2,-1,0,1,1,2047,28
"1901",33,41,0.202722793716741,-1,1,1,0,1,-1,2022,27
"1902",33,42,0.113010053038268,1,2,1,1,1,1,2759,28
"1903",33,43,0.346724159272964,NA,3,NA,NA,NA,NA,NA,27
"1904",33,44,0.276839573445961,NA,2,NA,NA,NA,NA,NA,28
"1905",33,45,0.296594849862601,NA,1,NA,NA,NA,NA,NA,29
"1906",33,46,0.328838246609022,NA,3,NA,NA,NA,NA,NA,30
"1907",33,47,0.334723702356411,-1,1,-1,1,1,-1,2134,29
"1908",33,48,0.392338516601206,-1,3,-1,1,1,-1,1942,28
"1909",33,49,0.315174409549185,-1,2,-1,1,1,-1,1719,27
"1910",33,50,0.410995568521237,-1,3,1,0,1,-1,2863,26
"1911",33,51,0.415747903474621,NA,1,NA,NA,NA,NA,NA,25
"1912",33,52,0.484728360066161,-1,2,-1,1,1,-1,2013,24
"1913",33,53,0.405159306700031,1,1,1,1,1,1,1897,25
"1914",33,54,0.351203862025505,NA,2,NA,NA,NA,NA,NA,26
"1915",33,55,0.411625705915002,NA,3,NA,NA,NA,NA,NA,27
"1916",33,56,0.445303428446125,-1,2,-1,1,1,-1,2167,26
"1917",33,57,0.511201622077726,NA,1,NA,NA,NA,NA,NA,27
"1918",33,58,0.516628740960607,1,3,-1,0,1,1,1998,28
"1919",33,59,0.564082067885403,NA,1,NA,NA,NA,NA,NA,27
"1920",33,60,0.496652065787158,1,3,-1,0,1,1,2018,28
"1921",34,1,0.590485874004662,NA,3,NA,NA,NA,NA,NA,23
"1922",34,2,0.420391147518365,1,1,1,1,1,1,2001,24
"1923",34,3,0.341814384185371,NA,2,NA,NA,NA,NA,NA,25
"1924",34,4,0.426131710946073,NA,1,NA,NA,NA,NA,NA,24
