"","SubID","trial_num","pUP","stock_outcome","choice","outcome","rt","tally"
"1",1,1,0.493758553266525,-1,0,1,2515,1
"2",1,2,0.52310860795234,-1,0,1,1002,2
"3",1,3,0.563027531476936,1,0,-1,973,1
"4",1,4,0.596121765318087,1,0,-1,659,0
"5",1,5,0.623124270589171,1,0,-1,4490,-1
"6",1,6,0.722037404168852,-1,1,-1,1474,-2
"7",1,7,0.796106584150052,1,0,-1,909,-3
"8",1,8,0.848650253704501,1,1,1,4509,-2
"9",1,9,0.846964145324319,-1,1,-1,1234,-3
"10",1,10,0.861725482974161,NA,NA,NA,NA,NA
"11",1,11,0.859243621537665,1,0,-1,1416,-4
"12",1,12,0.697664951318256,1,0,-1,1026,-5
"13",1,13,0.736955551331583,-1,1,-1,3077,-6
"14",1,14,0.667419381618967,1,0,-1,651,-7
"15",1,15,0.70780483987874,1,1,1,1412,-6
"16",1,16,0.786019011065941,1,1,1,1151,-5
"17",1,17,0.697134479228133,1,1,1,1029,-4
"18",1,18,0.660075191001824,1,1,1,313,-3
"19",1,19,0.53189433355538,1,1,1,448,-2
"20",1,20,0.530446371175815,-1,1,-1,655,-3
"21",1,21,0.487300994508908,1,1,1,2979,-2
"22",1,22,0.449824319956818,-1,1,-1,1574,-3
"23",1,23,0.465844189359286,1,0,-1,1645,-4
"24",1,24,0.387124601495542,-1,1,-1,559,-5
"25",1,25,0.249312320396463,-1,1,-1,563,-6
"26",1,26,0.251390264539417,-1,0,1,489,-5
"27",1,27,0.308981023947932,-1,0,1,569,-4
"28",1,28,0.337152829364142,-1,0,1,947,-3
"29",1,29,0.433250179274677,1,0,-1,968,-4
"30",1,30,0.413381989483701,1,0,-1,926,-5
"31",1,31,0.320597772473285,1,1,1,1666,-4
"32",1,32,0.294417937079353,-1,1,-1,622,-5
"33",1,33,0.387703036010136,1,1,1,687,-4
"34",1,34,0.291649443999266,1,1,1,1806,-3
"35",1,35,0.188973094803275,-1,1,-1,557,-4
"36",1,36,0.147840908226028,-1,0,1,2101,-3
"37",2,1,0.460632581217214,1,1,1,1307,1
"38",2,2,0.501094693193232,-1,1,-1,1232,0
"39",2,3,0.497113166550534,1,0,-1,472,-1
"40",2,4,0.487883935509536,-1,0,1,672,0
"41",2,5,0.486195874255771,-1,0,1,1103,1
"42",2,6,0.413398539509888,-1,0,1,400,2
"43",2,7,0.346782871292478,-1,0,1,495,3
"44",2,8,0.274173627096395,1,0,-1,296,2
"45",2,9,0.328909414491363,-1,1,-1,312,1
"46",2,10,0.420879497171924,-1,0,1,416,2
"47",2,11,0.408543849078259,-1,0,1,289,3
"48",2,12,0.406118721641442,-1,0,1,392,4
"49",2,13,0.352121833773694,-1,0,1,232,5
"50",2,14,0.254678624128085,-1,0,1,296,6
"51",2,15,0.189655956030767,-1,0,1,423,7
"52",2,16,0.170829007380734,-1,0,1,336,8
"53",2,17,0.291843504800742,-1,0,1,288,9
"54",2,18,0.472403283847519,1,0,-1,304,8
"55",2,19,0.42985539326679,1,0,-1,280,7
"56",2,20,0.539325518088073,1,1,1,248,8
"57",2,21,0.536078213010727,1,1,1,328,9
"58",2,22,0.606817615307148,1,1,1,368,10
"59",2,23,0.663332746090291,1,1,1,343,11
"60",2,24,0.581632177993533,1,1,1,432,12
"61",2,25,0.624759044461087,1,1,1,4784,13
"62",2,26,0.606627875951808,1,1,1,352,14
"63",2,27,0.649517731947435,1,1,1,440,15
"64",2,28,0.46528261507658,1,1,1,352,16
"65",2,29,0.468376563876144,-1,1,-1,336,15
"66",2,30,0.488737496673406,-1,0,1,3887,16
"67",2,31,0.586284637625285,NA,NA,NA,NA,NA
"68",2,32,0.601694767895302,1,0,-1,4703,15
"69",2,33,0.750563145222256,1,1,1,320,16
"70",2,34,0.792679240259055,1,1,1,248,17
"71",2,35,0.7831899248789,1,1,1,208,18
"72",2,36,0.726283211452178,-1,1,-1,247,17
"73",3,1,0.571737702516839,-1,0,1,2735,1
"74",3,2,0.665652861848425,NA,NA,NA,NA,NA
"75",3,3,0.590393122244927,1,0,-1,846,0
"76",3,4,0.622283488154842,1,1,1,431,1
"77",3,5,0.767358178726608,-1,1,-1,518,0
"78",3,6,0.819087627542101,1,0,-1,299,-1
"79",3,7,0.7865896772943,1,1,1,478,0
"80",3,8,0.81877520815479,-1,0,1,534,1
"81",3,9,0.87264084330826,1,1,1,299,2
"82",3,10,0.859060999319787,-1,1,-1,555,1
"83",3,11,0.82733158079564,1,1,1,487,2
"84",3,12,0.750121788395374,1,1,1,565,3
"85",3,13,0.683214448606637,-1,0,1,329,4
"86",3,14,0.640511116625584,-1,1,-1,438,3
"87",3,15,0.543950991284574,-1,1,-1,400,2
"88",3,16,0.518483102250723,1,0,-1,299,1
"89",3,17,0.500738035500201,1,1,1,409,2
"90",3,18,0.479690168705253,1,1,1,783,3
"91",3,19,0.410948763392932,-1,0,1,418,4
"92",3,20,0.441784804007479,-1,1,-1,481,3
"93",3,21,0.451908192556202,-1,1,-1,707,2
"94",3,22,0.372416376701035,NA,NA,NA,NA,NA
"95",3,23,0.423095509067797,-1,1,-1,957,1
"96",3,24,0.421948279073424,-1,1,-1,572,0
"97",3,25,0.313707952117939,-1,0,1,735,1
"98",3,26,0.274541431707316,1,0,-1,423,0
"99",3,27,0.254208543749008,-1,1,-1,282,-1
"100",3,28,0.175514977838329,1,1,1,275,0
"101",3,29,0.136779844948308,1,0,-1,628,-1
"102",3,30,0.2140234609724,1,1,1,363,0
"103",3,31,0.128162052390882,-1,0,1,350,1
"104",3,32,0.131252250670306,-1,0,1,504,2
"105",3,33,0.112599782018884,-1,0,1,332,3
"106",3,34,0.13026544225785,-1,1,-1,281,2
"107",3,35,0.131023188869651,-1,1,-1,266,1
"108",3,36,0.109836075856107,-1,0,1,299,2
"109",4,1,0.475014253379777,-1,1,-1,1292,-1
"110",4,2,0.581889068543466,-1,1,-1,2048,-2
"111",4,3,0.55854108750894,1,0,-1,640,-3
"112",4,4,0.555624044355025,1,1,1,336,-2
"113",4,5,0.526874261562848,1,1,1,559,-1
"114",4,6,0.575118304294897,1,1,1,481,0
"115",4,7,0.663121307252977,-1,0,1,367,1
"116",4,8,0.757173592727348,1,0,-1,368,0
"117",4,9,0.807372201575617,1,1,1,367,1
"118",4,10,0.86627303033648,1,0,-1,417,0
"119",4,11,0.834102143342889,1,1,1,288,1
"120",4,12,0.813821155629401,1,0,-1,367,0
"121",4,13,0.765809569396772,1,0,-1,320,-1
"122",4,14,0.648262287633812,1,1,1,321,0
"123",4,15,0.598896182589721,1,1,1,496,1
"124",4,16,0.58973152174995,1,1,1,288,2
"125",4,17,0.518866360769635,1,1,1,272,3
"126",4,18,0.452747861781235,1,1,1,272,4
"127",4,19,0.420296189757697,-1,1,-1,288,3
"128",4,20,0.460736234974975,1,0,-1,352,2
"129",4,21,0.358110249035357,-1,1,-1,320,1
"130",4,22,0.329489190199373,-1,0,1,352,2
"131",4,23,0.233756099075315,-1,0,1,592,3
"132",4,24,0.25683836416219,-1,0,1,336,4
"133",4,25,0.251766530938533,-1,0,1,433,5
"134",4,26,0.184596376467049,-1,0,1,369,6
"135",4,27,0.127458755533908,-1,0,1,321,7
"136",4,28,0.145029019768891,-1,0,1,351,8
"137",4,29,0.188146520162033,-1,0,1,463,9
"138",4,30,0.242338904582791,-1,0,1,416,10
"139",4,31,0.324219955008783,-1,0,1,609,11
"140",4,32,0.28405764978697,-1,0,1,513,12
"141",4,33,0.310397675593348,-1,0,1,432,13
"142",4,34,0.299713273848637,1,0,-1,384,12
"143",4,35,0.242265170331372,1,1,1,368,13
"144",4,36,0.362479657137298,-1,1,-1,401,12
"145",5,1,0.529818813456222,1,1,1,2092,1
"146",5,2,0.456905255764446,1,1,1,426,2
"147",5,3,0.426325299165686,-1,1,-1,388,1
"148",5,4,0.400091471574047,-1,1,-1,364,0
"149",5,5,0.583512381275651,1,1,1,918,1
"150",5,6,0.700759915699503,-1,1,-1,396,0
"151",5,7,0.665881255456705,NA,NA,NA,NA,NA
"152",5,8,0.71539930834295,1,1,1,1154,1
"153",5,9,0.810829166583044,1,1,1,582,2
"154",5,10,0.860953735165457,1,1,1,279,3
"155",5,11,0.871692466092333,-1,1,-1,326,2
"156",5,12,0.697077025765212,1,0,-1,310,1
"157",5,13,0.64577742074237,1,1,1,458,2
"158",5,14,0.635163790820554,1,1,1,407,3
"159",5,15,0.588824895309996,1,1,1,494,4
"160",5,16,0.514081281810023,-1,0,1,325,5
"161",5,17,0.493497204997668,-1,0,1,341,6
"162",5,18,0.503017373760849,-1,0,1,338,7
"163",5,19,0.534813253057028,-1,0,1,323,8
"164",5,20,0.483684121698925,1,1,1,338,9
"165",5,21,0.444611127653437,-1,1,-1,284,8
"166",5,22,0.515885788605472,1,0,-1,335,7
"167",5,23,0.447807264246451,-1,0,1,381,8
"168",5,24,0.384597931974976,-1,0,1,395,9
"169",5,25,0.224966500126256,1,0,-1,334,8
"170",5,26,0.244293085133551,-1,1,-1,34,7
"171",5,27,0.280493991079983,1,1,1,340,8
"172",5,28,0.323823579517685,-1,1,-1,373,7
"173",5,29,0.347114118193363,-1,1,-1,512,6
"174",5,30,0.283148938597073,-1,0,1,590,7
"175",5,31,0.307357809488274,-1,0,1,323,8
"176",5,32,0.292906539078354,-1,0,1,388,9
"177",5,33,0.258354664256298,-1,1,-1,314,8
"178",5,34,0.201353155776273,-1,1,-1,307,7
"179",5,35,0.155680444398687,-1,1,-1,314,6
"180",5,36,0.115277200289423,-1,0,1,463,7
"181",6,1,0.408205487206578,-1,1,-1,1809,-1
"182",6,2,0.460359425067075,-1,0,1,448,0
"183",6,3,0.502782800515964,-1,0,1,272,1
"184",6,4,0.531193400273492,-1,0,1,271,2
"185",6,5,0.536696621803707,1,0,-1,351,1
"186",6,6,0.509124070076235,-1,1,-1,16,0
"187",6,7,0.4839697948954,-1,0,1,96,1
"188",6,8,0.337258909261039,1,0,-1,288,0
"189",6,9,0.154730562894232,-1,1,-1,1392,-1
"190",6,10,0.138076010387343,-1,0,1,304,0
"191",6,11,0.208161265049509,-1,0,1,320,1
"192",6,12,0.283392424861587,-1,0,1,384,2
"193",6,13,0.334043789808541,-1,0,1,272,3
"194",6,14,0.374419497147848,-1,0,1,368,4
"195",6,15,0.399086522371803,-1,0,1,256,5
"196",6,16,0.439385984045832,1,0,-1,512,4
"197",6,17,0.441106062021816,1,0,-1,224,3
"198",6,18,0.447039944807566,-1,1,-1,368,2
"199",6,19,0.502069719013452,1,1,1,256,3
"200",6,20,0.665316618363691,1,1,1,287,4
"201",6,21,0.59404072198809,1,1,1,352,5
"202",6,22,0.555774755043053,-1,1,-1,368,4
"203",6,23,0.540715580775094,1,1,1,320,5
"204",6,24,0.610508292582018,-1,1,-1,272,4
"205",6,25,0.680176364857354,-1,1,-1,304,3
"206",6,26,0.791121227695055,1,0,-1,208,2
"207",6,27,0.6892247060378,1,0,-1,320,1
"208",6,28,0.667577183168271,-1,1,-1,208,0
"209",6,29,0.626465513465011,1,1,1,48,1
"210",6,30,0.729480770805175,1,1,1,256,2
"211",6,31,0.650061177363269,1,1,1,320,3
"212",6,32,0.520365741736552,1,1,1,239,4
"213",6,33,0.68645921864614,-1,1,-1,336,3
"214",6,34,0.804887429289551,1,1,1,111,4
"215",6,35,0.808476252181351,1,1,1,384,5
"216",6,36,0.87671067264178,1,1,1,272,6
"217",8,1,0.503222104953602,-1,1,-1,1497,-1
"218",8,2,0.546256920505659,-1,0,1,676,0
"219",8,3,0.622161765479013,1,0,-1,664,-1
"220",8,4,0.724393123879477,1,1,1,345,0
"221",8,5,0.750298337008145,-1,1,-1,321,-1
"222",8,6,0.75317406349452,-1,0,1,377,0
"223",8,7,0.752740392552613,1,1,1,456,1
"224",8,8,0.693965090851624,1,1,1,346,2
"225",8,9,0.74272357128745,1,0,-1,387,1
"226",8,10,0.708868818456519,-1,0,1,371,2
"227",8,11,0.74253839091778,1,0,-1,298,1
"228",8,12,0.652189261197475,1,1,1,582,2
"229",8,13,0.612289413131943,1,0,-1,342,1
"230",8,14,0.757215598046744,1,1,1,694,2
"231",8,15,0.63755533172038,1,0,-1,323,1
"232",8,16,0.638664793054867,-1,0,1,771,2
"233",8,17,0.57682290362504,1,0,-1,466,1
"234",8,18,0.503578324893324,-1,0,1,615,2
"235",8,19,0.514404782219574,1,0,-1,428,1
"236",8,20,0.567239836473471,1,1,1,1836,2
"237",8,21,0.482912787029504,1,1,1,241,3
"238",8,22,0.418445233167449,-1,1,-1,325,2
"239",8,23,0.375460046882797,1,0,-1,261,1
"240",8,24,0.312547001892859,-1,1,-1,1149,0
"241",8,25,0.219989036396277,-1,1,-1,180,-1
"242",8,26,0.298156960494683,-1,1,-1,211,-2
"243",8,27,0.325534010611182,1,1,1,391,-1
"244",8,28,0.366537107906574,1,1,1,387,0
"245",8,29,0.370904469567053,1,0,-1,481,-1
"246",8,30,0.339121482053974,-1,0,1,509,0
"247",8,31,0.276676621933283,-1,0,1,647,1
"248",8,32,0.216339102355853,1,0,-1,649,0
"249",8,33,0.226735247043319,-1,1,-1,376,-1
"250",8,34,0.284905975214173,1,0,-1,16,-2
"251",8,35,0.286412428999078,1,0,-1,427,-3
"252",8,36,0.263716101040054,-1,0,1,505,-2
"253",9,1,0.579190244851634,1,1,1,3034,1
"254",9,2,0.521410793813609,1,1,1,655,2
"255",9,3,0.420519859090898,-1,1,-1,581,1
"256",9,4,0.371370619215545,-1,0,1,524,2
"257",9,5,0.414579229097136,-1,0,1,878,3
"258",9,6,0.550221200620791,-1,0,1,284,4
"259",9,7,0.647818176342569,1,1,1,958,5
"260",9,8,0.670260899901318,-1,1,-1,279,4
"261",9,9,0.70855244504836,-1,1,-1,2827,3
"262",9,10,0.709231169228221,1,0,-1,590,2
"263",9,11,0.667189400719979,-1,1,-1,393,1
"264",9,12,0.617725966553493,1,1,1,423,2
"265",9,13,0.608437671141251,1,1,1,576,3
"266",9,14,0.586586738035574,-1,1,-1,704,2
"267",9,15,0.642729817314088,1,0,-1,249,1
"268",9,16,0.693757825424749,1,0,-1,1172,0
"269",9,17,0.627932417390295,1,1,1,313,1
"270",9,18,0.604943314641813,1,1,1,4791,2
"271",9,19,0.546385221275571,1,1,1,919,3
"272",9,20,0.695550714181305,1,1,1,306,4
"273",9,21,0.386702148674197,-1,1,-1,279,3
"274",9,22,0.22822460528083,-1,1,-1,312,2
"275",9,23,0.192587178104177,1,1,1,583,3
"276",9,24,0.144566326797342,-1,1,-1,630,2
"277",9,25,0.106069627332545,-1,0,1,332,3
"278",9,26,0.127462551902705,-1,0,1,352,4
"279",9,27,0.289188021099494,-1,0,1,362,5
"280",9,28,0.305527560892403,1,0,-1,928,4
"281",9,29,0.355120888706693,-1,1,-1,305,3
"282",9,30,0.35849267986516,1,0,-1,296,2
"283",9,31,0.424937274182104,-1,1,-1,555,1
"284",9,32,0.377048468855316,1,1,1,609,2
"285",9,33,0.439405059322717,1,1,1,780,3
"286",9,34,0.55417543885304,1,1,1,551,4
"287",9,35,0.501351431833249,1,1,1,768,5
"288",9,36,0.522860142003378,1,1,1,707,6
"289",10,1,0.52304397886619,1,1,1,2393,1
"290",10,2,0.486583486208697,1,1,1,771,2
"291",10,3,0.505747321674755,1,1,1,506,3
"292",10,4,0.612129129133789,1,1,1,414,4
"293",10,5,0.636385839449261,1,1,1,639,5
"294",10,6,0.595615250540836,-1,1,-1,432,4
"295",10,7,0.609844416177788,-1,1,-1,463,3
"296",10,8,0.614308249681226,1,0,-1,1049,2
"297",10,9,0.547705059950471,-1,1,-1,330,1
"298",10,10,0.544227589628746,-1,1,-1,156,0
"299",10,11,0.649190144795847,-1,1,-1,2574,-1
"300",10,12,0.756140457582227,1,1,1,440,0
"301",10,13,0.775196309008807,-1,1,-1,692,-1
"302",10,14,0.699221208926854,-1,0,1,1038,0
"303",10,15,0.63504451768932,1,0,-1,336,-1
"304",10,16,0.672656661781785,1,1,1,446,0
"305",10,17,0.597908130376103,1,1,1,625,1
"306",10,18,0.619806914531179,-1,1,-1,685,0
"307",10,19,0.545647926315405,-1,1,-1,457,-1
"308",10,20,0.670622311499604,-1,1,-1,356,-2
"309",10,21,0.565886076063878,-1,1,-1,473,-3
"310",10,22,0.614423177687547,-1,0,1,304,-2
"311",10,23,0.532292039848754,-1,0,1,302,-1
"312",10,24,0.52547744968581,-1,0,1,287,0
"313",10,25,0.516964559437987,-1,0,1,259,1
"314",10,26,0.402846490547499,1,0,-1,347,0
"315",10,27,0.303078821109621,-1,0,1,1054,1
"316",10,28,0.42215988229667,-1,0,1,655,2
"317",10,29,0.34398278756724,1,0,-1,656,1
"318",10,30,0.360613086106822,1,0,-1,303,0
"319",10,31,0.309020869008633,1,1,1,382,1
"320",10,32,0.205505732319958,-1,1,-1,575,0
"321",10,33,0.229130940470623,-1,1,-1,543,-1
"322",10,34,0.325975523488905,1,0,-1,368,-2
"323",10,35,0.212365718910275,1,1,1,400,-1
"324",10,36,0.156503035364047,-1,1,-1,383,-2
"325",11,1,0.452366993539021,NA,NA,NA,NA,NA
"326",11,2,0.484634571072832,1,1,1,1090,1
"327",11,3,0.435778898505281,-1,1,-1,1197,0
"328",11,4,0.489490457810122,-1,0,1,1046,1
"329",11,5,0.477332077531844,-1,0,1,946,2
"330",11,6,0.499454867409695,1,1,1,772,3
"331",11,7,0.488155196664171,1,0,-1,735,2
"332",11,8,0.562365624785785,1,0,-1,967,1
"333",11,9,0.66982778469885,1,1,1,754,2
"334",11,10,0.797668590493241,1,1,1,1084,3
"335",11,11,0.775818748752787,1,1,1,528,4
"336",11,12,0.746042798429907,1,1,1,693,5
"337",11,13,0.717131441075789,1,1,1,465,6
"338",11,14,0.794180098006283,1,1,1,408,7
"339",11,15,0.815466934554524,1,1,1,648,8
"340",11,16,0.829816959376645,-1,1,-1,555,7
"341",11,17,0.815202718811957,1,0,-1,355,6
"342",11,18,0.871199176744679,1,1,1,507,7
"343",11,19,0.869995855908252,1,1,1,417,8
"344",11,20,0.733702042544529,1,1,1,303,9
"345",11,21,0.710108430974821,1,1,1,456,10
"346",11,22,0.690249763227858,1,1,1,425,11
"347",11,23,0.683901177962288,1,1,1,525,12
"348",11,24,0.434136720485218,-1,1,-1,641,11
"349",11,25,0.390931506034344,1,0,-1,431,10
"350",11,26,0.276247946336525,-1,1,-1,339,9
"351",11,27,0.332627183389866,-1,0,1,1381,10
"352",11,28,0.339466676080619,-1,0,1,435,11
"353",11,29,0.331507004104798,-1,0,1,429,12
"354",11,30,0.377184203953112,-1,0,1,477,13
"355",11,31,0.242145651427254,-1,0,1,520,14
"356",11,32,0.20105782534841,-1,0,1,375,15
"357",11,33,0.235173886191176,-1,0,1,460,16
"358",11,34,0.238526523540145,1,0,-1,494,15
"359",11,35,0.294925675526597,-1,1,-1,390,14
"360",11,36,0.303762555673768,-1,0,1,345,15
"361",12,1,0.574675818812102,-1,1,-1,1498,-1
"362",12,2,0.669224236157282,1,0,-1,447,-2
"363",12,3,0.684952096230408,-1,1,-1,1360,-3
"364",12,4,0.608267828205255,-1,1,-1,531,-4
"365",12,5,0.652893173348092,-1,0,1,492,-3
"366",12,6,0.614935399786818,1,0,-1,1074,-4
"367",12,7,0.575778129159729,-1,0,1,432,-3
"368",12,8,0.537666602581448,-1,1,-1,277,-4
"369",12,9,0.538654666060282,1,1,1,272,-3
"370",12,10,0.418747006271382,-1,0,1,560,-2
"371",12,11,0.447468360749868,-1,1,-1,288,-3
"372",12,12,0.343765395887741,-1,1,-1,280,-4
"373",12,13,0.230657846888327,-1,1,-1,328,-5
"374",12,14,0.234157916106185,-1,0,1,271,-4
"375",12,15,0.338366466107986,-1,0,1,288,-3
"376",12,16,0.341237362193768,1,0,-1,328,-4
"377",12,17,0.300366546445734,-1,1,-1,240,-5
"378",12,18,0.306183915850797,1,0,-1,10,-6
"379",12,19,0.305088737664739,1,0,-1,524,-7
"380",12,20,0.305464948627455,-1,1,-1,392,-8
"381",12,21,0.248739666642009,-1,0,1,352,-7
"382",12,22,0.128532723169886,1,0,-1,592,-8
"383",12,23,0.257819188634882,-1,1,-1,480,-9
"384",12,24,0.263483545184516,-1,0,1,256,-8
"385",12,25,0.347785947382747,-1,0,1,640,-7
"386",12,26,0.40476673079112,1,0,-1,383,-8
"387",12,27,0.443744155057762,-1,0,1,240,-7
"388",12,28,0.504638139549322,-1,0,1,256,-6
"389",12,29,0.545171466273417,-1,1,-1,272,-7
"390",12,30,0.572592913945081,-1,0,1,80,-6
"391",12,31,0.59918761690933,1,0,-1,223,-7
"392",12,32,0.645342107599064,1,0,-1,80,-8
"393",12,33,0.66337406169968,1,0,-1,264,-9
"394",12,34,0.762786369238948,1,0,-1,216,-10
"395",12,35,0.690308595228033,1,1,1,552,-9
"396",12,36,0.79985152560453,-1,1,-1,176,-10
"397",15,1,0.524528958043084,1,1,1,1066,1
"398",15,2,0.407109645417257,1,1,1,1086,2
"399",15,3,0.445394305171885,-1,1,-1,552,1
"400",15,4,0.491760669230736,-1,0,1,224,2
"401",15,5,0.487484214587417,-1,0,1,494,3
"402",15,6,0.576167791463133,1,1,1,504,4
"403",15,7,0.515922589967154,-1,0,1,272,5
"404",15,8,0.537092418839332,-1,0,1,303,6
"405",15,9,0.513881797230615,1,0,-1,295,5
"406",15,10,0.582493123083095,1,1,1,367,6
"407",15,11,0.675891458133626,1,1,1,632,7
"408",15,12,0.736387433780332,1,1,1,1190,8
"409",15,13,0.678682385168315,-1,0,1,240,9
"410",15,14,0.813868323327272,1,0,-1,312,8
"411",15,15,0.797525857024413,1,1,1,376,9
"412",15,16,0.743937200616769,-1,1,-1,240,8
"413",15,17,0.836922530584661,1,0,-1,960,7
"414",15,18,0.876162513456442,1,1,1,183,8
"415",15,19,0.792936114743733,1,0,-1,376,7
"416",15,20,0.687818911432519,-1,0,1,312,8
"417",15,21,0.631652338565808,-1,0,1,255,9
"418",15,22,0.688120725369035,-1,0,1,256,10
"419",15,23,0.591762208764669,1,1,1,111,11
"420",15,24,0.459620547238136,1,0,-1,471,10
"421",15,25,0.401554302287484,-1,1,-1,488,9
"422",15,26,0.327222861236266,1,0,-1,671,8
"423",15,27,0.251387751258521,-1,1,-1,127,7
"424",15,28,0.205064220167979,-1,0,1,240,8
"425",15,29,0.218324470809234,1,0,-1,256,7
"426",15,30,0.245967297426098,-1,1,-1,240,6
"427",15,31,0.194009000854262,-1,0,1,535,7
"428",15,32,0.131712857993251,-1,0,1,143,8
"429",15,33,0.145444727118937,-1,1,-1,280,7
"430",15,34,0.145484187880629,-1,1,-1,231,6
"431",15,35,0.110362540319918,-1,1,-1,160,5
"432",15,36,0.211420529758863,1,1,1,200,6
"433",16,1,0.553800428286195,-1,1,-1,904,-1
"434",16,2,0.489479767180372,-1,0,1,342,0
"435",16,3,0.580434201258721,-1,0,1,321,1
"436",16,4,0.550964094562525,-1,0,1,237,2
"437",16,5,0.597289454713161,-1,0,1,154,3
"438",16,6,0.507325979367341,-1,0,1,250,4
"439",16,7,0.499258665339716,-1,0,1,167,5
"440",16,8,0.517139385650347,-1,0,1,84,6
"441",16,9,0.569740408590139,-1,0,1,59,7
"442",16,10,0.674129340943676,1,0,-1,150,6
"443",16,11,0.646100286554188,1,1,1,343,7
"444",16,12,0.699157706637755,-1,1,-1,245,6
"445",16,13,0.676169469846256,1,0,-1,220,5
"446",16,14,0.575395850237949,-1,0,1,394,6
"447",16,15,0.66037585102299,1,0,-1,237,5
"448",16,16,0.696416788731814,1,0,-1,263,4
"449",16,17,0.66752737589965,1,1,1,218,5
"450",16,18,0.60130095482002,1,1,1,221,6
"451",16,19,0.649977040290674,1,1,1,86,7
"452",16,20,0.641564411846684,-1,1,-1,129,6
"453",16,21,0.624842050779907,1,0,-1,219,5
"454",16,22,0.53317530606351,1,1,1,206,6
"455",16,23,0.460562254864646,-1,1,-1,211,5
"456",16,24,0.4727431824158,-1,1,-1,64,4
"457",16,25,0.531711379606201,1,0,-1,130,3
"458",16,26,0.442794876889054,1,1,1,394,4
"459",16,27,0.412379087538906,-1,1,-1,213,3
"460",16,28,0.381324574243617,-1,0,1,285,4
"461",16,29,0.28783993839771,-1,0,1,262,5
"462",16,30,0.187775840651583,1,0,-1,128,4
"463",16,31,0.230626250967353,1,0,-1,190,3
"464",16,32,0.248372735076294,-1,1,-1,223,2
"465",16,33,0.235644375113308,-1,0,1,208,3
"466",16,34,0.19313691807915,-1,0,1,258,4
"467",16,35,0.105662552315387,-1,0,1,152,5
"468",16,36,0.183684342986931,-1,0,1,399,6
"469",17,1,0.450931633310392,-1,1,-1,1523,-1
"470",17,2,0.435765397128951,1,0,-1,1208,-2
"471",17,3,0.47988377883477,-1,1,-1,1366,-3
"472",17,4,0.615383914037901,-1,1,-1,1297,-4
"473",17,5,0.617820605699333,-1,0,1,899,-3
"474",17,6,0.572252103861162,1,0,-1,423,-4
"475",17,7,0.554854721569531,-1,0,1,1042,-3
"476",17,8,0.44138039785849,-1,0,1,617,-2
"477",17,9,0.372070008060301,1,1,1,353,-1
"478",17,10,0.306201499936512,-1,0,1,405,0
"479",17,11,0.237816090905604,-1,0,1,346,1
"480",17,12,0.24769716824294,1,0,-1,1251,0
"481",17,13,0.201197426976291,-1,0,1,533,1
"482",17,14,0.337772387739507,-1,0,1,452,2
"483",17,15,0.397806861152729,-1,1,-1,266,1
"484",17,16,0.38642973748908,-1,1,-1,283,0
"485",17,17,0.395812528548377,1,0,-1,293,-1
"486",17,18,0.353330727683806,-1,1,-1,435,-2
"487",17,19,0.391073380528761,1,0,-1,350,-3
"488",17,20,0.529516637244002,1,0,-1,256,-4
"489",17,21,0.569106023143032,1,1,1,338,-3
"490",17,22,0.491679629055377,-1,1,-1,516,-4
"491",17,23,0.539530516290568,-1,1,-1,2098,-5
"492",17,24,0.584584534667249,-1,0,1,291,-4
"493",17,25,0.579316399389806,-1,0,1,574,-3
"494",17,26,0.68235756423426,1,0,-1,278,-4
"495",17,27,0.651456586001397,1,1,1,252,-3
"496",17,28,0.736784280469634,1,0,-1,380,-4
"497",17,29,0.758712838345015,-1,0,1,124,-3
"498",17,30,0.735001987034963,1,0,-1,419,-4
"499",17,31,0.773422518515695,1,1,1,335,-3
"500",17,32,0.824363434719445,1,1,1,461,-2
"501",17,33,0.795068184085402,1,1,1,247,-1
"502",17,34,0.722989903057963,1,1,1,823,0
"503",17,35,0.720601655214311,1,0,-1,295,-1
"504",17,36,0.61303121852997,-1,1,-1,279,-2
"505",18,1,0.442248217854649,NA,NA,NA,NA,NA
"506",18,2,0.489998236021817,-1,1,-1,3036,-1
"507",18,3,0.45394648289765,-1,0,1,2064,0
"508",18,4,0.381260922413519,-1,0,1,4149,1
"509",18,5,0.337162465611022,-1,0,1,1051,2
"510",18,6,0.351340917850818,-1,0,1,1417,3
"511",18,7,0.364754272036723,-1,0,1,1053,4
"512",18,8,0.404227399171853,1,0,-1,2785,3
"513",18,9,0.522583747834097,1,1,1,740,4
"514",18,10,0.467854347017246,1,1,1,1501,5
"515",18,11,0.567337536028842,-1,1,-1,770,4
"516",18,12,0.632687361340107,1,0,-1,441,3
"517",18,13,0.65262883667384,-1,1,-1,477,2
"518",18,14,0.561632508796135,-1,1,-1,718,1
"519",18,15,0.605882982055195,1,0,-1,861,0
"520",18,16,0.541442703560902,1,1,1,825,1
"521",18,17,0.477709264729386,-1,1,-1,1142,0
"522",18,18,0.658396004762362,1,0,-1,711,-1
"523",18,19,0.723195196073926,1,1,1,823,0
"524",18,20,0.6612897492286,-1,1,-1,1529,-1
"525",18,21,0.692297680385557,-1,0,1,1339,0
"526",18,22,0.637985162205899,1,0,-1,1446,-1
"527",18,23,0.648101574713489,-1,0,1,848,0
"528",18,24,0.594499236761397,1,0,-1,691,-1
"529",18,25,0.590981392044938,1,0,-1,624,-2
"530",18,26,0.532805407357786,1,0,-1,998,-3
"531",18,27,0.482778151685838,-1,1,-1,368,-4
"532",18,28,0.462647602153021,1,1,1,1557,-3
"533",18,29,0.379475805669077,-1,1,-1,1199,-4
"534",18,30,0.249929797502501,-1,1,-1,3678,-5
"535",18,31,0.232246898157534,-1,1,-1,1824,-6
"536",18,32,0.302079683118373,-1,0,1,777,-5
"537",18,33,0.299210003336163,1,0,-1,540,-6
"538",18,34,0.274426329221344,-1,1,-1,513,-7
"539",18,35,0.160409822413205,-1,0,1,546,-6
"540",18,36,0.152707173892582,-1,0,1,937,-5
"541",19,1,0.493202448356897,1,0,-1,1879,-1
"542",19,2,0.639931269521647,1,1,1,1058,0
"543",19,3,0.562716548567668,1,1,1,413,1
"544",19,4,0.528286409899826,1,1,1,361,2
"545",19,5,0.589430302751356,-1,1,-1,305,1
"546",19,6,0.678639643732625,1,0,-1,392,0
"547",19,7,0.589168487714135,1,1,1,468,1
"548",19,8,0.561848212460709,1,1,1,508,2
"549",19,9,0.599348941342516,1,1,1,434,3
"550",19,10,0.658310982233053,1,1,1,423,4
"551",19,11,0.719385687723068,1,1,1,314,5
"552",19,12,0.73427245937913,-1,1,-1,467,4
"553",19,13,0.735512847193198,1,1,1,357,5
"554",19,14,0.686831333618466,-1,1,-1,407,4
"555",19,15,0.611301324723163,-1,1,-1,565,3
"556",19,16,0.561884316198392,1,0,-1,523,2
"557",19,17,0.45491837584218,-1,1,-1,541,1
"558",19,18,0.304644628387671,-1,1,-1,415,0
"559",19,19,0.260005947487116,-1,0,1,450,1
"560",19,20,0.277045308462194,-1,0,1,374,2
"561",19,21,0.201164001729131,-1,0,1,467,3
"562",19,22,0.175355215171771,1,0,-1,513,2
"563",19,23,0.179086927448636,-1,1,-1,507,1
"564",19,24,0.246985763895408,-1,0,1,381,2
"565",19,25,0.26304038988958,-1,0,1,210,3
"566",19,26,0.3887090369037,-1,0,1,535,4
"567",19,27,0.42218630547649,1,0,-1,428,3
"568",19,28,0.440973460604326,-1,1,-1,340,2
"569",19,29,0.485121856774358,-1,0,1,417,3
"570",19,30,0.544527426903095,1,0,-1,387,2
"571",19,31,0.594349154024498,1,1,1,438,3
"572",19,32,0.43893716091666,-1,1,-1,328,2
"573",19,33,0.505758456177237,1,1,1,458,3
"574",19,34,0.457820392501473,1,1,1,368,4
"575",19,35,0.479390681204061,1,1,1,337,5
"576",19,36,0.390030401986809,-1,1,-1,482,4
"577",20,1,0.581455112108961,1,1,1,4513,1
"578",20,2,0.602946983829401,-1,1,-1,1041,0
"579",20,3,0.527051816088126,-1,1,-1,393,-1
"580",20,4,0.564287764832991,1,1,1,303,0
"581",20,5,0.649693354536869,1,1,1,415,1
"582",20,6,0.655448974490119,1,0,-1,295,0
"583",20,7,0.663480832720771,1,0,-1,495,-1
"584",20,8,0.713779228109336,1,0,-1,327,-2
"585",20,9,0.678717813039484,-1,1,-1,273,-3
"586",20,10,0.59606477442394,1,0,-1,248,-4
"587",20,11,0.645542419224139,-1,1,-1,305,-5
"588",20,12,0.671827195551963,1,1,1,197,-4
"589",20,13,0.757707714902773,1,1,1,128,-3
"590",20,14,0.746637523918254,-1,0,1,320,-2
"591",20,15,0.714556639797427,-1,0,1,337,-1
"592",20,16,0.703499679279727,1,1,1,257,0
"593",20,17,0.491950851217831,1,1,1,281,1
"594",20,18,0.405369744232316,1,1,1,95,2
"595",20,19,0.44580163149487,-1,1,-1,127,1
"596",20,20,0.405900393319262,-1,0,1,186,2
"597",20,21,0.415269040666199,1,1,1,152,3
"598",20,22,0.439367808272078,1,1,1,136,4
"599",20,23,0.455386563730844,1,0,-1,273,3
"600",20,24,0.372731108427078,-1,1,-1,126,2
"601",20,25,0.406906470169489,-1,1,-1,737,1
"602",20,26,0.34020745116522,1,0,-1,175,0
"603",20,27,0.295054054782872,1,1,1,530,1
"604",20,28,0.242884193114826,-1,0,1,127,2
"605",20,29,0.20019616023875,-1,0,1,201,3
"606",20,30,0.200527669498052,-1,1,-1,232,2
"607",20,31,0.149597610020497,-1,1,-1,176,1
"608",20,32,0.228250164013145,-1,1,-1,191,0
"609",20,33,0.178306138238726,-1,0,1,152,1
"610",20,34,0.172942297125204,-1,1,-1,233,0
"611",20,35,0.127512587045568,-1,0,1,174,1
"612",20,36,0.157824076626363,1,0,-1,257,0
"613",22,1,0.432269088039175,-1,1,-1,918,-1
"614",22,2,0.394000725471528,-1,0,1,441,0
"615",22,3,0.3687660378642,-1,0,1,325,1
"616",22,4,0.532011873191793,-1,0,1,263,2
"617",22,5,0.4977229533078,-1,1,-1,371,1
"618",22,6,0.478103528292439,1,0,-1,346,0
"619",22,7,0.401427062115773,1,1,1,319,1
"620",22,8,0.354851403578677,1,1,1,307,2
"621",22,9,0.3244355610468,-1,1,-1,387,1
"622",22,10,0.29124451400853,1,0,-1,352,0
"623",22,11,0.234616186077296,-1,0,1,657,1
"624",22,12,0.255277134324342,-1,0,1,512,2
"625",22,13,0.332108993522742,-1,0,1,313,3
"626",22,14,0.373000721106091,-1,0,1,292,4
"627",22,15,0.502826207757536,-1,1,-1,316,3
"628",22,16,0.567310238070365,1,1,1,304,4
"629",22,17,0.716627594294657,1,1,1,404,5
"630",22,18,0.746057755518743,1,1,1,289,6
"631",22,19,0.775368742253281,1,1,1,308,7
"632",22,20,0.720556304255327,1,0,-1,304,6
"633",22,21,0.704405431982195,-1,0,1,362,7
"634",22,22,0.786057675735395,-1,0,1,333,8
"635",22,23,0.747216233510458,1,0,-1,376,7
"636",22,24,0.693208439177531,1,0,-1,953,6
"637",22,25,0.698340773401151,1,1,1,360,7
"638",22,26,0.746978478947314,1,1,1,264,8
"639",22,27,0.72473738538789,1,1,1,259,9
"640",22,28,0.675547293697574,-1,1,-1,247,8
"641",22,29,0.651622275728187,1,0,-1,321,7
"642",22,30,0.515803708856866,1,1,1,751,8
"643",22,31,0.516758998239765,1,1,1,451,9
"644",22,32,0.44559790679824,1,1,1,280,10
"645",22,33,0.47766556514999,-1,1,-1,262,9
"646",22,34,0.542262617220625,-1,0,1,403,10
"647",22,35,0.62872045698557,-1,0,1,356,11
"648",22,36,0.663311118340025,1,0,-1,280,10
"649",23,1,0.512184707079457,-1,1,-1,2060,-1
"650",23,2,0.408664589395484,-1,0,1,509,0
"651",23,3,0.404143133356655,-1,0,1,671,1
"652",23,4,0.303536931989856,1,0,-1,310,0
"653",23,5,0.325980428613948,-1,1,-1,327,-1
"654",23,6,0.366176565205949,-1,1,-1,454,-2
"655",23,7,0.351346430463838,-1,0,1,320,-1
"656",23,8,0.242925050718967,-1,0,1,317,0
"657",23,9,0.194400096674231,1,0,-1,145,-1
"658",23,10,0.258186823842282,1,1,1,241,0
"659",23,11,0.227321436803551,-1,1,-1,169,-1
"660",23,12,0.18314035408169,-1,0,1,310,0
"661",23,13,0.179062741051127,-1,0,1,377,1
"662",23,14,0.151346856638469,-1,0,1,254,2
"663",23,15,0.264038337444896,-1,0,1,150,3
"664",23,16,0.28790621970655,-1,0,1,93,4
"665",23,17,0.337817796349779,1,0,-1,289,3
"666",23,18,0.489558945699534,1,1,1,439,4
"667",23,19,0.547128868754778,1,1,1,149,5
"668",23,20,0.671537964043257,1,1,1,86,6
"669",23,21,0.711874539190338,1,1,1,410,7
"670",23,22,0.784618651563065,1,1,1,163,8
"671",23,23,0.800206582166784,1,1,1,111,9
"672",23,24,0.764052703720397,-1,1,-1,312,8
"673",23,25,0.773447410460411,-1,0,1,231,9
"674",23,26,0.796349324204018,1,0,-1,284,8
"675",23,27,0.799233500191751,1,1,1,335,9
"676",23,28,0.654709921452339,1,1,1,220,10
"677",23,29,0.593380570208825,1,1,1,253,11
"678",23,30,0.532069317409892,-1,1,-1,303,10
"679",23,31,0.620566831568204,1,0,-1,134,9
"680",23,32,0.627148127557824,1,0,-1,393,8
"681",23,33,0.576414626642963,-1,1,-1,350,7
"682",23,34,0.566100441203954,1,1,1,356,8
"683",23,35,0.577211028117144,1,1,1,336,9
"684",23,36,0.652207062356063,-1,1,-1,327,8
"685",24,1,0.469688577530906,1,1,1,2677,1
"686",24,2,0.569303078202669,-1,1,-1,391,0
"687",24,3,0.67801461976214,1,0,-1,1305,-1
"688",24,4,0.617588512353539,-1,1,-1,460,-2
"689",24,5,0.540067470125357,-1,0,1,164,-1
"690",24,6,0.642391602007062,1,0,-1,677,-2
"691",24,7,0.60894784048688,-1,1,-1,475,-3
"692",24,8,0.771491464128543,-1,1,-1,370,-4
"693",24,9,0.681899377148179,1,1,1,539,-3
"694",24,10,0.661891454694871,1,1,1,462,-2
"695",24,11,0.660846859368272,1,1,1,399,-1
"696",24,12,0.731295555135616,-1,1,-1,581,-2
"697",24,13,0.640737230438368,1,1,1,504,-1
"698",24,14,0.676023205022651,1,1,1,3686,0
"699",24,15,0.472368103098183,-1,1,-1,757,-1
"700",24,16,0.470366010657767,1,1,1,1295,0
"701",24,17,0.622707484907351,1,1,1,950,1
"702",24,18,0.570254641122629,1,1,1,608,2
"703",24,19,0.52398860211953,1,1,1,3313,3
"704",24,20,0.422378756421133,NA,NA,NA,NA,NA
"705",24,21,0.565421458734943,NA,NA,NA,NA,NA
"706",24,22,0.522371323637556,NA,NA,NA,NA,NA
"707",24,23,0.469300938002255,-1,1,-1,1673,2
"708",24,24,0.479725652796254,-1,1,-1,455,1
"709",24,25,0.492729341523928,-1,1,-1,427,0
"710",24,26,0.351222140144829,-1,1,-1,621,-1
"711",24,27,0.276404290702666,-1,1,-1,691,-2
"712",24,28,0.299820673180068,-1,0,1,200,-1
"713",24,29,0.333877799847888,-1,0,1,601,0
"714",24,30,0.283832581423186,-1,0,1,536,1
"715",24,31,0.258185841698754,-1,0,1,487,2
"716",24,32,0.202063218324183,-1,0,1,927,3
"717",24,33,0.21878504114863,-1,1,-1,995,2
"718",24,34,0.369798808312962,-1,1,-1,1107,1
"719",24,35,0.411473956619975,-1,0,1,472,2
"720",24,36,0.452356719600938,-1,0,1,790,3
"721",25,1,0.429186142189428,-1,1,-1,2892,-1
"722",25,2,0.33313928196704,-1,0,1,805,0
"723",25,3,0.353954875953805,1,0,-1,1765,-1
"724",25,4,0.22247060107409,-1,1,-1,1115,-2
"725",25,5,0.227699654143273,-1,0,1,673,-1
"726",25,6,0.200698169360576,-1,0,1,798,0
"727",25,7,0.256870390146099,-1,0,1,73,1
"728",25,8,0.215393408622788,-1,0,1,605,2
"729",25,9,0.330935337805147,-1,0,1,572,3
"730",25,10,0.282082114163045,1,0,-1,2439,2
"731",25,11,0.308476945819592,-1,0,1,904,3
"732",25,12,0.440427856360165,-1,0,1,1126,4
"733",25,13,0.435462085364296,-1,0,1,1194,5
"734",25,14,0.442808077605707,-1,0,1,1154,6
"735",25,15,0.35598299498035,-1,0,1,1086,7
"736",25,16,0.426198404905954,-1,0,1,821,8
"737",25,17,0.455397365312132,1,0,-1,919,7
"738",25,18,0.560965843407547,1,0,-1,771,6
"739",25,19,0.573579249627783,-1,1,-1,1016,5
"740",25,20,0.754885605101979,1,1,1,1310,6
"741",25,21,0.808678185314671,1,1,1,1067,7
"742",25,22,0.850737299875729,1,1,1,855,8
"743",25,23,0.710212614096881,-1,1,-1,775,7
"744",25,24,0.843767066982396,-1,1,-1,819,6
"745",25,25,0.656364719499333,1,1,1,809,7
"746",25,26,0.546598423564866,-1,1,-1,1086,6
"747",25,27,0.651478554733914,1,0,-1,639,5
"748",25,28,0.54105567576395,-1,0,1,772,6
"749",25,29,0.635000219855503,1,0,-1,700,5
"750",25,30,0.740519418099183,1,0,-1,685,4
"751",25,31,0.77129129955197,1,0,-1,963,3
"752",25,32,0.899263797883564,1,1,1,666,4
"753",25,33,0.878273044465963,-1,1,-1,1064,3
"754",25,34,0.854170315746616,1,1,1,1000,4
"755",25,35,0.734762145561499,1,1,1,737,5
"756",25,36,0.76200991072851,1,1,1,705,6
"757",26,1,0.480698402784765,1,1,1,2067,1
"758",26,2,0.302452184338836,1,1,1,536,2
"759",26,3,0.38949547365744,1,1,1,304,3
"760",26,4,0.382567399171473,-1,1,-1,391,2
"761",26,5,0.360327004299891,1,1,1,319,3
"762",26,6,0.440767846118439,-1,1,-1,360,2
"763",26,7,0.564890621270368,1,1,1,191,3
"764",26,8,0.681989359067074,1,1,1,1575,4
"765",26,9,0.630715611067549,-1,1,-1,592,3
"766",26,10,0.643694952693231,1,1,1,2873,4
"767",26,11,0.723059256147207,-1,1,-1,505,3
"768",26,12,0.647434971396735,1,1,1,840,4
"769",26,13,0.539886445588905,-1,1,-1,440,3
"770",26,14,0.511857027939348,-1,1,-1,664,2
"771",26,15,0.416210668536322,1,0,-1,616,1
"772",26,16,0.39290805464925,1,1,1,360,2
"773",26,17,0.322305123257678,1,1,1,2119,3
"774",26,18,0.329430148648328,1,1,1,1048,4
"775",26,19,0.347987222873316,-1,1,-1,391,3
"776",26,20,0.284819879728831,-1,1,-1,353,2
"777",26,21,0.308327919951337,1,0,-1,310,1
"778",26,22,0.411762965331043,1,0,-1,312,0
"779",26,23,0.312943725545838,-1,1,-1,952,-1
"780",26,24,0.290217054556603,-1,1,-1,560,-2
"781",26,25,0.43321808043314,1,1,1,1065,-1
"782",26,26,0.513371036798612,1,1,1,312,0
"783",26,27,0.553177878937719,-1,0,1,303,1
"784",26,28,0.527334450841027,-1,0,1,257,2
"785",26,29,0.550025416281833,-1,1,-1,304,1
"786",26,30,0.651699430342042,-1,1,-1,311,0
"787",26,31,0.655869667539001,1,0,-1,272,-1
"788",26,32,0.652269957129731,-1,0,1,87,0
"789",26,33,0.660840978365535,-1,0,1,720,1
"790",26,34,0.801366966092893,1,1,1,3753,2
"791",26,35,0.800349363065557,1,1,1,288,3
"792",26,36,0.793202603389317,-1,1,-1,336,2
"793",28,1,0.530950177913825,-1,1,-1,975,-1
"794",28,2,0.545667899105911,1,0,-1,501,-2
"795",28,3,0.665911025213416,1,1,1,286,-1
"796",28,4,0.708681379323358,1,1,1,324,0
"797",28,5,0.576094957147161,-1,1,-1,308,-1
"798",28,6,0.546594075823206,1,0,-1,310,-2
"799",28,7,0.612327427462006,1,1,1,318,-1
"800",28,8,0.714260184314847,-1,1,-1,286,-2
"801",28,9,0.768350375520684,-1,0,1,308,-1
"802",28,10,0.621941822653578,-1,0,1,316,0
"803",28,11,0.702895159275233,-1,0,1,406,1
"804",28,12,0.744056819572243,1,1,1,285,2
"805",28,13,0.69178426576749,1,1,1,320,3
"806",28,14,0.675841254722773,-1,1,-1,521,2
"807",28,15,0.523562933453353,1,0,-1,303,1
"808",28,16,0.562440771023,1,1,1,330,2
"809",28,17,0.559396776059804,-1,1,-1,157,1
"810",28,18,0.597454074202013,1,0,-1,255,0
"811",28,19,0.602245499931101,1,1,1,291,1
"812",28,20,0.537581864395655,1,1,1,626,2
"813",28,21,0.506344543096928,1,1,1,95,3
"814",28,22,0.49117613546039,-1,0,1,286,4
"815",28,23,0.424360555417301,-1,0,1,288,5
"816",28,24,0.366515871509998,1,0,-1,256,4
"817",28,25,0.319770373577293,-1,1,-1,300,3
"818",28,26,0.328289177075286,-1,0,1,267,4
"819",28,27,0.264825637880215,-1,0,1,338,5
"820",28,28,0.315677603972237,1,1,1,74,6
"821",28,29,0.208432431560608,-1,1,-1,315,5
"822",28,30,0.181578242434481,-1,0,1,448,6
"823",28,31,0.212603801255191,-1,1,-1,361,5
"824",28,32,0.221847701478754,-1,0,1,1051,6
"825",28,33,0.258910978949088,1,1,1,251,7
"826",28,34,0.353454308445894,-1,1,-1,261,6
"827",28,35,0.378470545789209,1,0,-1,288,5
"828",28,36,0.453875275334042,1,1,1,297,6
"829",29,1,0.570347036592543,1,1,1,1717,1
"830",29,2,0.586485074515432,1,1,1,1392,2
"831",29,3,0.644695946679247,1,0,-1,2465,1
"832",29,4,0.73258184459716,1,1,1,1404,2
"833",29,5,0.794111441360539,1,1,1,1547,3
"834",29,6,0.69807058022783,1,1,1,597,4
"835",29,7,0.639967968020509,1,1,1,517,5
"836",29,8,0.677667070858453,1,1,1,441,6
"837",29,9,0.704003651190172,-1,1,-1,402,5
"838",29,10,0.714550809638725,1,0,-1,479,4
"839",29,11,0.778342906760631,1,1,1,324,5
"840",29,12,0.669321600888836,1,1,1,373,6
"841",29,13,0.54141435349423,1,1,1,431,7
"842",29,14,0.582790133351362,1,1,1,326,8
"843",29,15,0.553529539371817,1,1,1,286,9
"844",29,16,0.586818897429616,-1,1,-1,284,8
"845",29,17,0.547438140937,1,1,1,478,9
"846",29,18,0.489098029134984,-1,1,-1,439,8
"847",29,19,0.456852684472352,1,1,1,564,9
"848",29,20,0.368429353487884,-1,1,-1,428,8
"849",29,21,0.311600059063996,1,1,1,330,9
"850",29,22,0.231129189334951,-1,0,1,391,10
"851",29,23,0.226362469330289,-1,1,-1,447,9
"852",29,24,0.292492867328556,-1,0,1,437,10
"853",29,25,0.294305949295488,-1,0,1,490,11
"854",29,26,0.205652631501755,-1,0,1,432,12
"855",29,27,0.371234024680369,-1,0,1,350,13
"856",29,28,0.3866758580043,-1,0,1,586,14
"857",29,29,0.442084649877795,-1,0,1,639,15
"858",29,30,0.518176948519359,-1,0,1,485,16
"859",29,31,0.543431869020206,1,0,-1,334,15
"860",29,32,0.690576357868098,1,0,-1,37,14
"861",29,33,0.62670481800995,1,1,1,37,15
"862",29,34,0.499665666239707,-1,1,-1,93,14
"863",29,35,0.520724907681146,-1,1,-1,22,13
"864",29,36,0.475714773935789,1,0,-1,136,12
"865",30,1,0.585108792129904,-1,1,-1,1800,-1
"866",30,2,0.634715371459395,1,0,-1,606,-2
"867",30,3,0.701815948093193,1,1,1,964,-1
"868",30,4,0.64595667206796,1,1,1,398,0
"869",30,5,0.656435222388527,-1,1,-1,737,-1
"870",30,6,0.485805367386911,1,0,-1,286,-2
"871",30,7,0.489630141904193,-1,1,-1,292,-3
"872",30,8,0.4343984203771,-1,1,-1,271,-4
"873",30,9,0.399215158006153,1,1,1,640,-3
"874",30,10,0.634975649429297,-1,1,-1,272,-4
"875",30,11,0.648251464832442,1,0,-1,110,-5
"876",30,12,0.706948534644845,1,1,1,1430,-4
"877",30,13,0.688653456460939,1,1,1,350,-3
"878",30,14,0.562727272646034,-1,0,1,365,-2
"879",30,15,0.566546354847185,-1,0,1,1100,-1
"880",30,16,0.510424358381947,1,1,1,971,0
"881",30,17,0.462089485970553,1,1,1,317,1
"882",30,18,0.496615316485184,1,0,-1,363,0
"883",30,19,0.544884434311164,-1,0,1,646,1
"884",30,20,0.5408036741013,1,0,-1,505,0
"885",30,21,0.585431978373261,1,0,-1,594,-1
"886",30,22,0.506362808269297,1,1,1,233,0
"887",30,23,0.48135847953932,1,0,-1,337,-1
"888",30,24,0.416249987641731,1,1,1,185,0
"889",30,25,0.503547033959491,1,1,1,444,1
"890",30,26,0.504264133521785,-1,1,-1,570,0
"891",30,27,0.636652275059789,1,1,1,2877,1
"892",30,28,0.408714966223894,-1,1,-1,314,0
"893",30,29,0.334405931807097,-1,1,-1,387,-1
"894",30,30,0.246062384376748,-1,0,1,306,0
"895",30,31,0.225900299319412,-1,0,1,632,1
"896",30,32,0.214204518240504,1,0,-1,753,0
"897",30,33,0.196718428727414,-1,1,-1,335,-1
"898",30,34,0.124248456590341,-1,1,-1,2175,-2
"899",30,35,0.118634069067036,-1,1,-1,72,-3
"900",30,36,0.134493474337688,-1,0,1,266,-2
"901",31,1,0.469677793746814,NA,NA,NA,NA,NA
"902",31,2,0.477099793061281,-1,0,1,1064,1
"903",31,3,0.578918374479623,-1,0,1,1695,2
"904",31,4,0.632083305737348,1,0,-1,561,1
"905",31,5,0.724031947376985,1,1,1,658,2
"906",31,6,0.696331642544591,1,1,1,293,3
"907",31,7,0.718878640297511,1,1,1,326,4
"908",31,8,0.708277949242028,1,1,1,353,5
"909",31,9,0.624393243835827,1,1,1,268,6
"910",31,10,0.665254913765315,-1,1,-1,303,5
"911",31,11,0.645835345046116,1,0,-1,348,4
"912",31,12,0.811836334479136,1,1,1,417,5
"913",31,13,0.811484777159155,1,1,1,380,6
"914",31,14,0.749959504134659,1,1,1,436,7
"915",31,15,0.664176878804309,-1,1,-1,364,6
"916",31,16,0.618352525935655,1,1,1,454,7
"917",31,17,0.59790258611614,-1,1,-1,399,6
"918",31,18,0.434349782857518,1,0,-1,270,5
"919",31,19,0.489912917751063,1,1,1,469,6
"920",31,20,0.443532934513768,1,1,1,451,7
"921",31,21,0.477195429506077,-1,1,-1,297,6
"922",31,22,0.365052870005986,1,1,1,939,7
"923",31,23,0.388299459837428,1,0,-1,295,6
"924",31,24,0.38951534877489,-1,0,1,143,7
"925",31,25,0.46172037933787,-1,1,-1,338,6
"926",31,26,0.321287063181831,-1,0,1,427,7
"927",31,27,0.211301277771231,-1,0,1,293,8
"928",31,28,0.181975139799363,-1,0,1,259,9
"929",31,29,0.107825543943228,1,0,-1,264,8
"930",31,30,0.319868332630014,-1,0,1,307,9
"931",31,31,0.177863754949706,1,0,-1,878,8
"932",31,32,0.138940232692608,-1,1,-1,1166,7
"933",31,33,0.16209178897546,-1,1,-1,520,6
"934",31,34,0.200137877095672,-1,0,1,639,7
"935",31,35,0.244407628217187,-1,0,1,735,8
"936",31,36,0.247075086125584,1,0,-1,319,7
"937",32,1,0.511100159159365,-1,1,-1,2337,-1
"938",32,2,0.645335564561047,1,0,-1,757,-2
"939",32,3,0.437358592561895,1,1,1,911,-1
"940",32,4,0.507392072998786,1,1,1,1843,0
"941",32,5,0.614748168614212,1,0,-1,972,-1
"942",32,6,0.485832026417276,1,0,-1,1316,-2
"943",32,7,0.449194318921057,-1,1,-1,1084,-3
"944",32,8,0.385800602183056,1,0,-1,857,-4
"945",32,9,0.392485094162816,-1,1,-1,967,-5
"946",32,10,0.346393405319733,-1,1,-1,1350,-6
"947",32,11,0.317231751893004,-1,0,1,1389,-5
"948",32,12,0.328109327457547,-1,0,1,1063,-4
"949",32,13,0.30496551310226,-1,1,-1,1025,-5
"950",32,14,0.357392896253078,-1,1,-1,1154,-6
"951",32,15,0.384414416917818,1,1,1,987,-5
"952",32,16,0.360777333109096,-1,1,-1,1157,-6
"953",32,17,0.42755136422664,-1,1,-1,991,-7
"954",32,18,0.359580496388127,-1,1,-1,1204,-8
"955",32,19,0.399378607175575,1,1,1,1064,-7
"956",32,20,0.425586247759691,-1,1,-1,2137,-8
"957",32,21,0.441909651649545,-1,1,-1,1236,-9
"958",32,22,0.562866236398707,1,1,1,1231,-8
"959",32,23,0.68356907593196,1,1,1,1117,-7
"960",32,24,0.713766809229035,-1,0,1,1033,-6
"961",32,25,0.74526982421395,1,0,-1,1632,-7
"962",32,26,0.614798160081609,1,0,-1,1386,-8
"963",32,27,0.643712149333708,-1,1,-1,1212,-9
"964",32,28,0.674309140444552,1,1,1,1123,-8
"965",32,29,0.69231852683406,1,1,1,1074,-7
"966",32,30,0.668157206655895,-1,1,-1,1097,-8
"967",32,31,0.724657808928572,1,0,-1,1013,-9
"968",32,32,0.716851924414259,1,0,-1,1275,-10
"969",32,33,0.782141584239433,1,0,-1,1243,-11
"970",32,34,0.776214451458625,1,0,-1,1319,-12
"971",32,35,0.771907807584978,1,0,-1,1379,-13
"972",32,36,0.867612702220383,1,0,-1,1137,-14
"973",33,1,0.489720208151266,1,1,1,836,1
"974",33,2,0.327085655982552,-1,1,-1,1256,0
"975",33,3,0.323475980362206,1,1,1,816,1
"976",33,4,0.337447332529811,-1,1,-1,436,0
"977",33,5,0.429529686800454,-1,1,-1,283,-1
"978",33,6,0.342476276155425,-1,0,1,403,0
"979",33,7,0.322446974776228,1,0,-1,352,-1
"980",33,8,0.267380154031591,-1,0,1,247,0
"981",33,9,0.205832194248877,-1,0,1,778,1
"982",33,10,0.272989537601598,-1,0,1,378,2
"983",33,11,0.444091768917467,1,0,-1,341,1
"984",33,12,0.485201837139965,1,0,-1,279,0
"985",33,13,0.540656520857558,1,1,1,216,1
"986",33,14,0.546964822666356,-1,1,-1,264,0
"987",33,15,0.51874561311531,1,1,1,93,1
"988",33,16,0.410408769264547,-1,1,-1,473,0
"989",33,17,0.421019294331241,-1,1,-1,186,-1
"990",33,18,0.359335127731222,-1,0,1,110,0
"991",33,19,0.409698231961197,-1,0,1,250,1
"992",33,20,0.401385790198175,-1,0,1,213,2
"993",33,21,0.553301523727757,1,0,-1,288,1
"994",33,22,0.533830764217749,-1,1,-1,10,0
"995",33,23,0.62509015823317,1,1,1,208,1
"996",33,24,0.553877067691908,-1,1,-1,568,0
"997",33,25,0.614841554387008,1,0,-1,483,-1
"998",33,26,0.740431953081856,1,1,1,1138,0
"999",33,27,0.831433675362397,1,1,1,258,1
"1000",33,28,0.852703162704838,1,1,1,217,2
"1001",33,29,0.842286513471975,1,0,-1,347,1
"1002",33,30,0.736930889141132,1,0,-1,544,0
"1003",33,31,0.733300209628526,1,1,1,109,1
"1004",33,32,0.784096985658999,1,1,1,10,2
"1005",33,33,0.761352282286976,1,1,1,6,3
"1006",33,34,0.750249011941909,1,1,1,87,4
"1007",33,35,0.772696672309792,1,1,1,109,5
"1008",33,36,0.734946855172276,1,1,1,43,6
"1009",34,1,0.587364917062223,1,1,1,1609,1
"1010",34,2,0.585582858777905,1,1,1,1055,2
"1011",34,3,0.686771135950892,1,1,1,760,3
"1012",34,4,0.753223272381726,1,1,1,446,4
"1013",34,5,0.726067222909966,-1,1,-1,553,3
"1014",34,6,0.791793918105217,-1,0,1,446,4
"1015",34,7,0.861733864034656,1,0,-1,455,3
"1016",34,8,0.828530354480219,1,1,1,314,4
"1017",34,9,0.72343847084811,1,1,1,638,5
"1018",34,10,0.768372374173879,1,0,-1,329,4
"1019",34,11,0.888290194944342,-1,1,-1,334,3
"1020",34,12,0.82307411720018,-1,1,-1,425,2
"1021",34,13,0.83231617942543,1,0,-1,350,1
"1022",34,14,0.844460127946947,-1,1,-1,536,0
"1023",34,15,0.723807277618263,-1,1,-1,272,-1
"1024",34,16,0.72679333144462,1,0,-1,342,-2
"1025",34,17,0.691124922356841,1,1,1,359,-1
"1026",34,18,0.558114119282856,-1,1,-1,287,-2
"1027",34,19,0.385901012316406,1,1,1,279,-1
"1028",34,20,0.524292489923234,1,1,1,297,0
"1029",34,21,0.538705867453482,-1,1,-1,248,-1
"1030",34,22,0.385995755562146,-1,1,-1,473,-2
"1031",34,23,0.384521622562129,1,1,1,10,-1
"1032",34,24,0.205543323408934,1,1,1,382,0
"1033",34,25,0.12273844475088,-1,1,-1,2270,-1
"1034",34,26,0.102667742634111,-1,1,-1,834,-2
"1035",34,27,0.107355563478041,-1,1,-1,2740,-3
"1036",34,28,0.119217068920935,-1,1,-1,320,-4
"1037",34,29,0.149772475185437,-1,1,-1,542,-5
"1038",34,30,0.139019195888359,-1,1,-1,496,-6
"1039",34,31,0.226789802357517,1,1,1,1455,-5
"1040",34,32,0.129387506835895,NA,NA,NA,NA,NA
"1041",34,33,0.164121521210529,1,1,1,26,-4
"1042",34,34,0.123250169375204,1,1,1,4439,-3
"1043",34,35,0.137331582614893,-1,1,-1,2417,-4
"1044",34,36,0.123775041557051,-1,1,-1,3743,-5
"1045",35,1,0.508411719603615,1,1,1,2068,1
"1046",35,2,0.426457478373603,1,1,1,543,2
"1047",35,3,0.317610099502218,-1,1,-1,655,1
"1048",35,4,0.272659854364599,1,1,1,446,2
"1049",35,5,0.166453592128614,-1,1,-1,496,1
"1050",35,6,0.205581528236791,-1,0,1,416,2
"1051",35,7,0.125571272341031,-1,0,1,399,3
"1052",35,8,0.203612073063172,-1,0,1,543,4
"1053",35,9,0.190049828672046,1,0,-1,352,3
"1054",35,10,0.109886866219386,-1,0,1,355,4
"1055",35,11,0.337477511227362,-1,1,-1,2620,3
"1056",35,12,0.373030597348311,1,0,-1,352,2
"1057",35,13,0.473284015951388,-1,0,1,352,3
"1058",35,14,0.46249886875154,1,0,-1,654,2
"1059",35,15,0.463991458764227,-1,1,-1,415,1
"1060",35,16,0.423711531354985,-1,0,1,335,2
"1061",35,17,0.524912518098394,-1,0,1,1024,3
"1062",35,18,0.458442104148565,1,0,-1,928,2
"1063",35,19,0.557009623743115,1,0,-1,367,1
"1064",35,20,0.55615925287287,1,1,1,367,2
"1065",35,21,0.567456334892974,1,1,1,447,3
"1066",35,22,0.35763292014889,-1,1,-1,448,2
"1067",35,23,0.44066798187974,-1,1,-1,384,1
"1068",35,24,0.496569253217165,1,0,-1,462,0
"1069",35,25,0.503745346838085,-1,0,1,817,1
"1070",35,26,0.579250365071844,1,0,-1,384,0
"1071",35,27,0.656307370102424,1,0,-1,1002,-1
"1072",35,28,0.65814773837619,1,1,1,431,0
"1073",35,29,0.740275530702975,1,1,1,464,1
"1074",35,30,0.698952778307837,-1,1,-1,448,0
"1075",35,31,0.815457288255149,1,1,1,800,1
"1076",35,32,0.818975019402658,-1,1,-1,671,0
"1077",35,33,0.81930122654038,1,0,-1,352,-1
"1078",35,34,0.754597017145734,1,1,1,529,0
"1079",35,35,0.627850972662953,1,1,1,574,1
"1080",35,36,0.560902930612423,-1,1,-1,479,0
"1081",36,1,0.52113765457416,1,1,1,3009,1
"1082",36,2,0.516817484712066,1,1,1,878,2
"1083",36,3,0.496401589112004,-1,1,-1,935,1
"1084",36,4,0.572134444901045,-1,1,-1,1198,0
"1085",36,5,0.712272088608448,1,0,-1,1124,-1
"1086",36,6,0.753259394399048,-1,1,-1,1803,-2
"1087",36,7,0.815724359011972,1,1,1,2512,-1
"1088",36,8,0.80114054057896,1,1,1,861,0
"1089",36,9,0.858939492083011,1,1,1,597,1
"1090",36,10,0.850438616067678,1,1,1,1271,2
"1091",36,11,0.853507150522662,1,1,1,966,3
"1092",36,12,0.766388081242755,-1,1,-1,842,2
"1093",36,13,0.764088244679836,1,0,-1,1130,1
"1094",36,14,0.675653219080001,1,1,1,1057,2
"1095",36,15,0.535389338107432,-1,1,-1,922,1
"1096",36,16,0.560264213478901,-1,1,-1,840,0
"1097",36,17,0.559351620132432,-1,1,-1,1138,-1
"1098",36,18,0.63413870383706,1,1,1,925,0
"1099",36,19,0.562570162417011,1,1,1,982,1
"1100",36,20,0.578213603867224,1,1,1,530,2
"1101",36,21,0.572796398585671,-1,1,-1,556,1
"1102",36,22,0.507263795874758,1,1,1,462,2
"1103",36,23,0.529061072457932,-1,1,-1,447,1
"1104",36,24,0.584973092452765,1,1,1,474,2
"1105",36,25,0.496993531077279,1,1,1,447,3
"1106",36,26,0.440440847485131,-1,1,-1,458,2
"1107",36,27,0.488385434767857,-1,1,-1,742,1
"1108",36,28,0.433794517982617,-1,1,-1,534,0
"1109",36,29,0.245865418135518,1,1,1,652,1
"1110",36,30,0.346113360030858,-1,1,-1,520,0
"1111",36,31,0.267772336113494,-1,1,-1,800,-1
"1112",36,32,0.24487180513201,-1,1,-1,585,-2
"1113",36,33,0.200541294871936,-1,1,-1,626,-3
"1114",36,34,0.173699732145144,-1,1,-1,770,-4
"1115",36,35,0.211850114309985,-1,0,1,690,-3
"1116",36,36,0.114850629313982,-1,0,1,714,-2
"1117",37,1,0.470123615115881,1,1,1,1535,1
"1118",37,2,0.461975059276169,1,1,1,344,2
"1119",37,3,0.439050628597313,1,1,1,345,3
"1120",37,4,0.45143653455562,-1,1,-1,409,2
"1121",37,5,0.470242582221694,1,0,-1,245,1
"1122",37,6,0.382149223568108,-1,1,-1,288,0
"1123",37,7,0.309204479423246,-1,1,-1,1065,-1
"1124",37,8,0.398928236338922,1,0,-1,284,-2
"1125",37,9,0.494876320415931,1,1,1,379,-1
"1126",37,10,0.546325886234974,1,1,1,328,0
"1127",37,11,0.641157781384443,-1,1,-1,575,-1
"1128",37,12,0.716433443302228,1,0,-1,223,-2
"1129",37,13,0.682684947914787,-1,1,-1,280,-3
"1130",37,14,0.696934057665256,1,1,1,504,-2
"1131",37,15,0.700325218877323,1,1,1,255,-1
"1132",37,16,0.834076376443336,1,1,1,352,0
"1133",37,17,0.851147485599253,1,1,1,2654,1
"1134",37,18,0.883997039679489,1,1,1,312,2
"1135",37,19,0.891242777989223,1,1,1,303,3
"1136",37,20,0.832911691058863,1,1,1,217,4
"1137",37,21,0.548332201136405,1,1,1,1151,5
"1138",37,22,0.550551369751074,-1,1,-1,327,4
"1139",37,23,0.564756151076888,-1,1,-1,303,3
"1140",37,24,0.562441593386786,1,0,-1,358,2
"1141",37,25,0.532776838536783,-1,1,-1,286,1
"1142",37,26,0.475222805740255,-1,0,1,376,2
"1143",37,27,0.436356526798192,1,0,-1,288,1
"1144",37,28,0.39672182858315,1,0,-1,633,0
"1145",37,29,0.472859939052297,-1,1,-1,320,-1
"1146",37,30,0.516002696739541,-1,1,-1,87,-2
"1147",37,31,0.462889187780224,-1,0,1,2241,-1
"1148",37,32,0.473740901637998,-1,0,1,341,0
"1149",37,33,0.406753455230597,1,0,-1,320,-1
"1150",37,34,0.43344052519968,-1,1,-1,248,-2
"1151",37,35,0.397440056567609,-1,1,-1,310,-3
"1152",37,36,0.317509437710001,-1,0,1,209,-2
"1153",38,1,0.482913551945239,1,1,1,1592,1
"1154",38,2,0.490682038718998,-1,1,-1,1824,0
"1155",38,3,0.474579807291183,1,0,-1,960,-1
"1156",38,4,0.585042405226791,-1,1,-1,1992,-2
"1157",38,5,0.643883056842312,1,1,1,343,-1
"1158",38,6,0.646381497496023,1,1,1,1265,0
"1159",38,7,0.692717468666168,1,1,1,2400,1
"1160",38,8,0.604692542332118,1,1,1,1712,2
"1161",38,9,0.630944936723035,-1,0,1,720,3
"1162",38,10,0.687957506324309,1,0,-1,1960,2
"1163",38,11,0.705197998222039,1,0,-1,448,1
"1164",38,12,0.75133086329006,-1,1,-1,687,0
"1165",38,13,0.770117295616276,1,1,1,849,1
"1166",38,14,0.754049316359963,1,1,1,824,2
"1167",38,15,0.74278710093544,1,0,-1,624,1
"1168",38,16,0.742540799151828,1,1,1,895,2
"1169",38,17,0.697973431287218,1,1,1,809,3
"1170",38,18,0.715079666320498,-1,0,1,1216,4
"1171",38,19,0.558454370126559,1,0,-1,320,3
"1172",38,20,0.514649243928828,-1,1,-1,863,2
"1173",38,21,0.494023730940206,1,0,-1,353,1
"1174",38,22,0.374725810982195,1,1,1,320,2
"1175",38,23,0.328353053256748,1,1,1,1191,3
"1176",38,24,0.317802414032888,-1,1,-1,392,2
"1177",38,25,0.42992394319939,-1,1,-1,553,1
"1178",38,26,0.386928898784912,1,0,-1,480,0
"1179",38,27,0.340813178159477,-1,0,1,400,1
"1180",38,28,0.292281120859658,-1,0,1,303,2
"1181",38,29,0.149641509189533,1,0,-1,297,1
"1182",38,30,0.148786976458407,1,1,1,456,2
"1183",38,31,0.17266892626096,-1,1,-1,336,1
"1184",38,32,0.32015066222994,-1,1,-1,375,0
"1185",38,33,0.218563082761485,-1,0,1,616,1
"1186",38,34,0.19271954474464,-1,0,1,345,2
"1187",38,35,0.206395353421746,-1,0,1,240,3
"1188",38,36,0.271662623292501,-1,1,-1,304,2
"1189",39,1,0.487256579240784,-1,1,-1,1955,-1
"1190",39,2,0.461360686704233,1,0,-1,950,-2
"1191",39,3,0.410885517240374,1,1,1,167,-1
"1192",39,4,0.485377041654166,-1,1,-1,232,-2
"1193",39,5,0.5495553609954,-1,1,-1,143,-3
"1194",39,6,0.553039620472978,-1,0,1,159,-2
"1195",39,7,0.517878024057691,-1,0,1,271,-1
"1196",39,8,0.454443010606768,-1,0,1,143,0
"1197",39,9,0.520022383788516,1,0,-1,278,-1
"1198",39,10,0.288403586681803,1,1,1,39,0
"1199",39,11,0.354181782870376,-1,1,-1,127,-1
"1200",39,12,0.280946053791588,-1,0,1,31,0
"1201",39,13,0.349070650726419,-1,0,1,7,1
"1202",39,14,0.255705128730275,-1,0,1,143,2
"1203",39,15,0.186845456573823,-1,0,1,79,3
"1204",39,16,0.180141582964016,-1,0,1,95,4
"1205",39,17,0.146314203026349,1,0,-1,327,3
"1206",39,18,0.112063384133235,-1,1,-1,191,2
"1207",39,19,0.201679425904015,-1,0,1,159,3
"1208",39,20,0.208175451643918,-1,0,1,79,4
"1209",39,21,0.268770845989152,1,0,-1,38,3
"1210",39,22,0.394678105098762,-1,1,-1,95,2
"1211",39,23,0.527811589682958,1,0,-1,30,1
"1212",39,24,0.585135800496209,1,0,-1,335,0
"1213",39,25,0.725273365390065,-1,1,-1,175,-1
"1214",39,26,0.8162911028194,1,0,-1,95,-2
"1215",39,27,0.803648994196746,-1,1,-1,71,-3
"1216",39,28,0.697905373236958,-1,1,-1,143,-4
"1217",39,29,0.657908123732634,1,0,-1,47,-5
"1218",39,30,0.727995884537161,1,0,-1,134,-6
"1219",39,31,0.639396417817798,1,0,-1,71,-7
"1220",39,32,0.600310424470285,1,1,1,31,-6
"1221",39,33,0.496749361431603,-1,1,-1,47,-7
"1222",39,34,0.493717607568757,1,1,1,31,-6
"1223",39,35,0.513555821429415,1,1,1,119,-5
"1224",39,36,0.448623305190219,-1,1,-1,159,-6
"1225",40,1,0.451491514271382,-1,1,-1,4507,-1
"1226",40,2,0.451560995226888,1,0,-1,494,-2
"1227",40,3,0.512104852508001,-1,1,-1,392,-3
"1228",40,4,0.482457721109862,-1,1,-1,750,-4
"1229",40,5,0.333601432936664,-1,0,1,426,-3
"1230",40,6,0.317049600890036,-1,0,1,509,-2
"1231",40,7,0.275968726428264,-1,0,1,551,-1
"1232",40,8,0.356429774493497,-1,0,1,493,0
"1233",40,9,0.287748119395298,-1,0,1,570,1
"1234",40,10,0.297725037594056,1,0,-1,433,0
"1235",40,11,0.349276966676411,-1,1,-1,445,-1
"1236",40,12,0.420378063055653,-1,1,-1,623,-2
"1237",40,13,0.35460633424846,-1,0,1,789,-1
"1238",40,14,0.480900767172086,1,0,-1,483,-2
"1239",40,15,0.512476646978419,1,0,-1,531,-3
"1240",40,16,0.517880216403896,-1,1,-1,735,-4
"1241",40,17,0.437157670691123,-1,1,-1,597,-5
"1242",40,18,0.388447616337667,-1,1,-1,373,-6
"1243",40,19,0.335405625379789,-1,1,-1,1481,-7
"1244",40,20,0.468460060253275,1,0,-1,415,-8
"1245",40,21,0.546652524966483,1,0,-1,519,-9
"1246",40,22,0.465216029174061,-1,0,1,832,-8
"1247",40,23,0.485338571275198,-1,0,1,566,-7
"1248",40,24,0.530824245491933,1,0,-1,390,-8
"1249",40,25,0.404363613648974,-1,1,-1,675,-9
"1250",40,26,0.366886663356573,1,0,-1,379,-10
"1251",40,27,0.53488289848622,-1,1,-1,409,-11
"1252",40,28,0.545710902107284,-1,1,-1,473,-12
"1253",40,29,0.610520156141184,-1,1,-1,1162,-13
"1254",40,30,0.636114465414347,1,0,-1,2476,-14
"1255",40,31,0.718480187850689,1,1,1,370,-13
"1256",40,32,0.749671899407975,1,1,1,475,-12
"1257",40,33,0.782872014662761,1,1,1,985,-11
"1258",40,34,0.792989115983252,1,1,1,655,-10
"1259",40,35,0.824385360559631,1,1,1,731,-9
"1260",40,36,0.851928816657178,1,1,1,403,-8
"1261",41,1,0.497403315408155,1,1,1,1461,1
"1262",41,2,0.531126513663866,1,1,1,713,2
"1263",41,3,0.577686810084172,-1,1,-1,562,1
"1264",41,4,0.656591509193818,1,0,-1,331,0
"1265",41,5,0.588071744973367,1,1,1,471,1
"1266",41,6,0.5544883239531,1,1,1,332,2
"1267",41,7,0.55371006270082,1,1,1,399,3
"1268",41,8,0.669381366171749,1,1,1,394,4
"1269",41,9,0.591740238071261,-1,1,-1,459,3
"1270",41,10,0.558642743741228,1,0,-1,334,2
"1271",41,11,0.648919294914853,-1,1,-1,362,1
"1272",41,12,0.791914506309443,-1,0,1,283,2
"1273",41,13,0.786733787747601,-1,0,1,69,3
"1274",41,14,0.805768590329498,1,0,-1,73,2
"1275",41,15,0.874667304675863,1,0,-1,369,1
"1276",41,16,0.704266464544421,1,1,1,363,2
"1277",41,17,0.751006431390682,1,1,1,231,3
"1278",41,18,0.615993438592702,1,1,1,276,4
"1279",41,19,0.61833168325487,1,1,1,11,5
"1280",41,20,0.531185316019324,1,1,1,227,6
"1281",41,21,0.571138934517288,1,1,1,364,7
"1282",41,22,0.514658886575902,-1,1,-1,303,6
"1283",41,23,0.434206486192444,1,0,-1,314,5
"1284",41,24,0.369410773069946,-1,1,-1,5,4
"1285",41,25,0.316950798527031,1,0,-1,260,3
"1286",41,26,0.22634591120785,-1,0,1,279,4
"1287",41,27,0.166747104672043,1,0,-1,638,3
"1288",41,28,0.231313042278101,-1,0,1,353,4
"1289",41,29,0.152175283527721,-1,1,-1,269,3
"1290",41,30,0.164239168599502,-1,0,1,395,4
"1291",41,31,0.156966692253725,-1,0,1,607,5
"1292",41,32,0.104795081981652,-1,0,1,892,6
"1293",41,33,0.213139493640996,-1,0,1,1482,7
"1294",41,34,0.218053038321616,-1,0,1,1120,8
"1295",41,35,0.161758037358225,-1,0,1,1346,9
"1296",41,36,0.25481592779466,1,0,-1,1209,8
"1297",42,1,0.480012205755338,1,1,1,3721,1
"1298",42,2,0.564539483966512,1,1,1,4895,2
"1299",42,3,0.620678261686718,1,1,1,993,3
"1300",42,4,0.64561433002368,1,0,-1,1215,2
"1301",42,5,0.681535544470921,1,0,-1,398,1
"1302",42,6,0.785908144903145,-1,0,1,418,2
"1303",42,7,0.789469103095867,1,0,-1,286,1
"1304",42,8,0.811406039500827,1,1,1,351,2
"1305",42,9,0.824788372084186,1,1,1,305,3
"1306",42,10,0.761114758157888,1,1,1,431,4
"1307",42,11,0.70443952751615,1,0,-1,399,3
"1308",42,12,0.727127771648773,-1,0,1,287,4
"1309",42,13,0.793098697904633,1,1,1,399,5
"1310",42,14,0.696807422197312,-1,1,-1,639,4
"1311",42,15,0.626850917796253,-1,0,1,286,5
"1312",42,16,0.551043816493578,1,0,-1,304,4
"1313",42,17,0.535658508102355,-1,1,-1,368,3
"1314",42,18,0.583257886123238,1,1,1,4415,4
"1315",42,19,0.583538570972508,-1,1,-1,943,3
"1316",42,20,0.501500023278315,-1,1,-1,1151,2
"1317",42,21,0.50597438500465,1,1,1,704,3
"1318",42,22,0.494652750895776,NA,NA,NA,NA,NA
"1319",42,23,0.498683147076893,NA,NA,NA,NA,NA
"1320",42,24,0.430999622120393,NA,NA,NA,NA,NA
"1321",42,25,0.440238465077052,-1,1,-1,761,2
"1322",42,26,0.401672376746551,1,0,-1,576,1
"1323",42,27,0.273403685891047,-1,1,-1,768,0
"1324",42,28,0.331695854010581,-1,1,-1,367,-1
"1325",42,29,0.325811307081495,-1,1,-1,49,-2
"1326",42,30,0.261339272392831,-1,1,-1,321,-3
"1327",42,31,0.221431679421991,-1,1,-1,271,-4
"1328",42,32,0.271437831994966,-1,1,-1,319,-5
"1329",42,33,0.276810437643302,-1,1,-1,319,-6
"1330",42,34,0.124789173412148,-1,1,-1,368,-7
"1331",42,35,0.137208965872784,1,1,1,305,-6
"1332",42,36,0.168028929485048,-1,1,-1,943,-7
"1333",43,1,0.587687731068581,1,1,1,1331,1
"1334",43,2,0.59137333484552,1,0,-1,40,0
"1335",43,3,0.53475868368009,-1,1,-1,1344,-1
"1336",43,4,0.596324204545707,1,0,-1,1932,-2
"1337",43,5,0.665229085647034,-1,0,1,787,-1
"1338",43,6,0.686462535400098,1,0,-1,1325,-2
"1339",43,7,0.65033449556975,1,0,-1,1288,-3
"1340",43,8,0.726037528206394,1,1,1,1011,-2
"1341",43,9,0.685645713247645,1,1,1,847,-1
"1342",43,10,0.611901858425062,1,1,1,1015,0
"1343",43,11,0.59954464024546,1,1,1,951,1
"1344",43,12,0.532443820574615,1,1,1,798,2
"1345",43,13,0.570387387475528,1,1,1,789,3
"1346",43,14,0.617100994587627,-1,1,-1,687,2
"1347",43,15,0.677248342368551,1,1,1,655,3
"1348",43,16,0.675771427814334,1,1,1,782,4
"1349",43,17,0.678151100404614,-1,1,-1,734,3
"1350",43,18,0.693197279208648,-1,1,-1,671,2
"1351",43,19,0.704568635786305,1,0,-1,792,1
"1352",43,20,0.53428600476752,-1,1,-1,681,0
"1353",43,21,0.551026738420239,-1,0,1,632,1
"1354",43,22,0.442147733497963,-1,0,1,995,2
"1355",43,23,0.430448072106355,-1,0,1,1003,3
"1356",43,24,0.230578939557302,-1,0,1,937,4
"1357",43,25,0.217310612482377,1,0,-1,773,3
"1358",43,26,0.244839083569705,-1,1,-1,944,2
"1359",43,27,0.167962829755544,-1,0,1,523,3
"1360",43,28,0.141524649137646,-1,0,1,619,4
"1361",43,29,0.116714762736911,-1,0,1,740,5
"1362",43,30,0.135410617998766,1,0,-1,675,4
"1363",43,31,0.145143590169857,-1,0,1,635,5
"1364",43,32,0.113049395063936,-1,0,1,734,6
"1365",43,33,0.245981122368369,-1,0,1,861,7
"1366",43,34,0.234536141967479,-1,0,1,889,8
"1367",43,35,0.114464460165852,-1,0,1,1617,9
"1368",43,36,0.173454969526007,-1,0,1,702,10
"1369",44,1,0.470079399424689,NA,NA,NA,NA,NA
"1370",44,2,0.410436799191818,-1,1,-1,1982,-1
"1371",44,3,0.528363735535217,1,0,-1,1262,-2
"1372",44,4,0.441584428749529,-1,0,1,1240,-1
"1373",44,5,0.503526721838689,-1,0,1,550,0
"1374",44,6,0.407220018676184,1,0,-1,449,-1
"1375",44,7,0.519223425906736,-1,0,1,479,0
"1376",44,8,0.467726181717375,1,0,-1,680,-1
"1377",44,9,0.499001087904937,-1,0,1,391,0
"1378",44,10,0.49076607463068,1,0,-1,817,-1
"1379",44,11,0.409805078843541,1,0,-1,407,-2
"1380",44,12,0.460884208428003,1,0,-1,872,-3
"1381",44,13,0.380178057503871,-1,1,-1,767,-4
"1382",44,14,0.289600786305314,-1,1,-1,327,-5
"1383",44,15,0.244099891585337,-1,0,1,288,-4
"1384",44,16,0.275327214975725,-1,0,1,608,-3
"1385",44,17,0.402696570972056,-1,0,1,359,-2
"1386",44,18,0.388900879248055,-1,0,1,784,-1
"1387",44,19,0.498411010363365,1,0,-1,408,-2
"1388",44,20,0.439548454496963,-1,1,-1,329,-3
"1389",44,21,0.509944029695146,1,0,-1,309,-4
"1390",44,22,0.433998918531838,-1,0,1,288,-3
"1391",44,23,0.546571310840836,-1,0,1,464,-2
"1392",44,24,0.60796059859753,1,0,-1,430,-3
"1393",44,25,0.630252382856617,1,0,-1,345,-4
"1394",44,26,0.703685907208506,1,0,-1,310,-5
"1395",44,27,0.676223706635101,1,0,-1,303,-6
"1396",44,28,0.667290843144824,1,0,-1,253,-7
"1397",44,29,0.617632829739219,-1,0,1,104,-6
"1398",44,30,0.696036397306232,1,0,-1,351,-7
"1399",44,31,0.700235022534253,1,1,1,231,-6
"1400",44,32,0.656411855934498,-1,1,-1,320,-7
"1401",44,33,0.820702408633934,-1,0,1,288,-6
"1402",44,34,0.884525511318588,1,0,-1,512,-7
"1403",44,35,0.842617987445556,1,1,1,318,-6
"1404",44,36,0.849311219324572,1,1,1,384,-5
"1405",45,1,0.550603173034474,1,1,1,1431,1
"1406",45,2,0.671343088491967,-1,1,-1,989,0
"1407",45,3,0.681629627898164,-1,1,-1,437,-1
"1408",45,4,0.571040804618931,1,0,-1,501,-2
"1409",45,5,0.702345400285954,1,1,1,344,-1
"1410",45,6,0.712828456651231,1,1,1,503,0
"1411",45,7,0.866844226535344,1,1,1,522,1
"1412",45,8,0.885536497909202,1,1,1,461,2
"1413",45,9,0.610556956743582,1,1,1,334,3
"1414",45,10,0.641787126369212,1,1,1,429,4
"1415",45,11,0.718284502063791,1,1,1,382,5
"1416",45,12,0.500080879448815,1,1,1,61,6
"1417",45,13,0.478923656282148,1,1,1,581,7
"1418",45,14,0.550528735266854,1,1,1,441,8
"1419",45,15,0.596316245959634,1,1,1,232,9
"1420",45,16,0.6086280190761,1,1,1,133,10
"1421",45,17,0.623007002267002,1,1,1,254,11
"1422",45,18,0.547155935671055,-1,1,-1,283,10
"1423",45,19,0.480761320510114,-1,1,-1,377,9
"1424",45,20,0.422361338257365,1,0,-1,135,8
"1425",45,21,0.422587701283619,-1,0,1,337,9
"1426",45,22,0.316561507876043,-1,0,1,256,10
"1427",45,23,0.382817470474355,1,0,-1,445,9
"1428",45,24,0.388268091412009,1,0,-1,14,8
"1429",45,25,0.355883109812091,1,1,1,277,9
"1430",45,26,0.337935796318745,-1,1,-1,291,8
"1431",45,27,0.327040229932682,-1,1,-1,272,7
"1432",45,28,0.321820024670022,-1,0,1,109,8
"1433",45,29,0.321697297756257,-1,0,1,293,9
"1434",45,30,0.26335046618163,-1,0,1,387,10
"1435",45,31,0.207860628719197,-1,0,1,115,11
"1436",45,32,0.166049560866745,1,0,-1,429,10
"1437",45,33,0.175838741106284,1,1,1,14,11
"1438",45,34,0.233437258949258,-1,1,-1,421,10
"1439",45,35,0.253079022237979,-1,0,1,101,11
"1440",45,36,0.218767107645485,-1,0,1,334,12
"1441",47,1,0.476534474175423,1,1,1,1746,1
"1442",47,2,0.518510362369366,1,1,1,459,2
"1443",47,3,0.507074012070322,1,1,1,299,3
"1444",47,4,0.523378563156382,-1,1,-1,237,2
"1445",47,5,0.569449896819409,-1,1,-1,1379,1
"1446",47,6,0.530636482499424,-1,0,1,286,2
"1447",47,7,0.590391336403517,1,0,-1,300,1
"1448",47,8,0.623683601447004,-1,0,1,2217,2
"1449",47,9,0.66900133502606,1,0,-1,385,1
"1450",47,10,0.596743458404168,1,1,1,1118,2
"1451",47,11,0.52315075621024,1,1,1,331,3
"1452",47,12,0.660770753838259,1,1,1,267,4
"1453",47,13,0.649427341126149,1,1,1,795,5
"1454",47,14,0.543870373513583,1,1,1,276,6
"1455",47,15,0.493384257332359,1,1,1,270,7
"1456",47,16,0.452426547705521,1,1,1,278,8
"1457",47,17,0.447723802605072,1,1,1,272,9
"1458",47,18,0.313560840186925,-1,1,-1,135,8
"1459",47,19,0.240463016543174,-1,1,-1,702,7
"1460",47,20,0.271354441586124,-1,0,1,260,8
"1461",47,21,0.352610674427859,1,0,-1,243,7
"1462",47,22,0.286710108734808,-1,0,1,556,8
"1463",47,23,0.217974341899412,-1,0,1,480,9
"1464",47,24,0.19452579414519,1,1,1,250,10
"1465",47,25,0.172364004595037,-1,1,-1,504,9
"1466",47,26,0.253438203116805,1,0,-1,674,8
"1467",47,27,0.350355280185204,-1,1,-1,272,7
"1468",47,28,0.530956729178835,1,1,1,217,8
"1469",47,29,0.649683090473872,-1,1,-1,284,7
"1470",47,30,0.66954528954952,1,1,1,927,8
"1471",47,31,0.64655910516499,1,1,1,275,9
"1472",47,32,0.677658744826445,1,0,-1,331,8
"1473",47,33,0.602193255321407,-1,1,-1,300,7
"1474",47,34,0.666652592618196,-1,1,-1,333,6
"1475",47,35,0.687698902950604,-1,1,-1,247,5
"1476",47,36,0.743062697908168,1,1,1,47,6
"1477",48,1,0.552183425193652,1,1,1,1248,1
"1478",48,2,0.522622713013707,1,1,1,711,2
"1479",48,3,0.622542614646322,-1,1,-1,538,1
"1480",48,4,0.691568423001604,1,0,-1,389,0
"1481",48,5,0.698957803641637,1,1,1,471,1
"1482",48,6,0.810639761279518,1,1,1,270,2
"1483",48,7,0.743006676770825,1,1,1,563,3
"1484",48,8,0.617104042960771,-1,1,-1,303,2
"1485",48,9,0.546470859482141,1,0,-1,1329,1
"1486",48,10,0.567492818286242,-1,1,-1,899,0
"1487",48,11,0.459339433913669,-1,0,1,331,1
"1488",48,12,0.408730248453402,1,0,-1,364,0
"1489",48,13,0.566487490670748,1,1,1,2275,1
"1490",48,14,0.487787562809299,1,1,1,272,2
"1491",48,15,0.530504911884422,1,1,1,1728,3
"1492",48,16,0.637677440096607,1,1,1,293,4
"1493",48,17,0.604556416039118,1,1,1,331,5
"1494",48,18,0.612699203876369,1,1,1,97,6
"1495",48,19,0.615537191956553,-1,1,-1,386,5
"1496",48,20,0.558761422102884,-1,0,1,285,6
"1497",48,21,0.517844136139777,-1,0,1,390,7
"1498",48,22,0.571125114364739,1,0,-1,317,6
"1499",48,23,0.613376978878302,-1,1,-1,331,5
"1500",48,24,0.503399580252078,1,0,-1,332,4
"1501",48,25,0.380690499623625,-1,0,1,347,5
"1502",48,26,0.369619491875453,1,0,-1,370,4
"1503",48,27,0.434886938811249,1,0,-1,458,3
"1504",48,28,0.435148646522646,-1,1,-1,375,2
"1505",48,29,0.353477623941937,1,1,1,340,3
"1506",48,30,0.210030220078763,1,1,1,240,4
"1507",48,31,0.133450599074385,-1,1,-1,277,3
"1508",48,32,0.136056974974711,-1,0,1,219,4
"1509",48,33,0.179168668546224,-1,0,1,161,5
"1510",48,34,0.232478270948876,-1,0,1,271,6
"1511",48,35,0.375712360129329,-1,0,1,748,7
"1512",48,36,0.426676122458694,1,0,-1,242,6
"1513",49,1,0.531691887276247,-1,1,-1,2359,-1
"1514",49,2,0.48908060504479,-1,0,1,540,0
"1515",49,3,0.314338000540177,1,0,-1,477,-1
"1516",49,4,0.222551707415301,-1,1,-1,263,-2
"1517",49,5,0.109826777270308,-1,0,1,432,-1
"1518",49,6,0.154504712739396,-1,0,1,272,0
"1519",49,7,0.139304713463942,-1,0,1,300,1
"1520",49,8,0.239051154666697,-1,0,1,278,2
"1521",49,9,0.383783587567538,-1,0,1,285,3
"1522",49,10,0.421839553441403,-1,0,1,244,4
"1523",49,11,0.452994350944725,-1,0,1,242,5
"1524",49,12,0.429494788651888,-1,0,1,318,6
"1525",49,13,0.497229980310152,-1,0,1,472,7
"1526",49,14,0.502842768741626,-1,0,1,240,8
"1527",49,15,0.529517258331798,1,0,-1,443,7
"1528",49,16,0.458110866137555,1,1,1,208,8
"1529",49,17,0.540039073022259,-1,1,-1,309,7
"1530",49,18,0.513907837262234,1,0,-1,226,6
"1531",49,19,0.565118780610041,1,1,1,240,7
"1532",49,20,0.536406423210412,1,1,1,255,8
"1533",49,21,0.624670261106833,1,1,1,243,9
"1534",49,22,0.617132459755902,1,1,1,279,10
"1535",49,23,0.672290621204204,-1,1,-1,353,9
"1536",49,24,0.647001949148269,1,0,-1,164,8
"1537",49,25,0.65650217752231,-1,1,-1,186,7
"1538",49,26,0.634833969450778,-1,0,1,255,8
"1539",49,27,0.64044093309511,-1,0,1,344,9
"1540",49,28,0.628591798491449,1,0,-1,233,8
"1541",49,29,0.712361518648384,-1,1,-1,123,7
"1542",49,30,0.758418296459011,1,0,-1,236,6
"1543",49,31,0.786723802333631,1,1,1,255,7
"1544",49,32,0.763188818640337,1,1,1,121,8
"1545",49,33,0.728487528763327,1,1,1,280,9
"1546",49,34,0.83773609631733,1,1,1,254,10
"1547",49,35,0.832241911790186,1,1,1,374,11
"1548",49,36,0.863496837606691,-1,1,-1,287,10
"1549",50,1,0.523064925754443,-1,1,-1,3568,-1
"1550",50,2,0.605906391464177,NA,NA,NA,NA,NA
"1551",50,3,0.585236350812637,1,1,1,1401,0
"1552",50,4,0.519044931360038,-1,0,1,860,1
"1553",50,5,0.497844340083717,1,0,-1,1145,0
"1554",50,6,0.53248423476221,1,1,1,647,1
"1555",50,7,0.54086403547927,1,1,1,400,2
"1556",50,8,0.552107406411064,1,0,-1,545,1
"1557",50,9,0.61620371949301,1,1,1,1165,2
"1558",50,10,0.565320771261118,-1,1,-1,582,1
"1559",50,11,0.664871436335982,1,0,-1,422,0
"1560",50,12,0.729432218311665,1,0,-1,353,-1
"1561",50,13,0.729330702226748,1,1,1,294,0
"1562",50,14,0.727394617306183,-1,1,-1,473,-1
"1563",50,15,0.799136133017352,1,0,-1,677,-2
"1564",50,16,0.853580076738782,-1,1,-1,298,-3
"1565",50,17,0.80508605631595,-1,1,-1,340,-4
"1566",50,18,0.793779104923163,1,0,-1,262,-5
"1567",50,19,0.715306472975529,1,0,-1,563,-6
"1568",50,20,0.687314942563683,1,1,1,283,-5
"1569",50,21,0.637804179894554,-1,1,-1,347,-6
"1570",50,22,0.794065610173031,1,0,-1,968,-7
"1571",50,23,0.570242610609744,1,1,1,250,-6
"1572",50,24,0.483084795261292,1,1,1,291,-5
"1573",50,25,0.510601636476889,-1,1,-1,258,-6
"1574",50,26,0.472137890455341,-1,0,1,248,-5
"1575",50,27,0.407934840770422,-1,0,1,64,-4
"1576",50,28,0.427532214480236,1,0,-1,275,-5
"1577",50,29,0.346908556184475,1,1,1,65,-4
"1578",50,30,0.284889284745681,-1,1,-1,260,-5
"1579",50,31,0.195902155857842,1,0,-1,212,-6
"1580",50,32,0.193489710153751,1,1,1,45,-5
"1581",50,33,0.17266856925508,1,1,1,297,-4
"1582",50,34,0.119354348273928,1,1,1,920,-3
"1583",50,35,0.111770504985793,-1,1,-1,364,-4
"1584",50,36,0.125177237332655,1,0,-1,189,-5
"1585",51,1,0.513501734200592,1,1,1,1414,1
"1586",51,2,0.398055721128999,-1,1,-1,535,0
"1587",51,3,0.374416066869487,-1,1,-1,324,-1
"1588",51,4,0.372973363124144,-1,1,-1,343,-2
"1589",51,5,0.309145013424046,-1,1,-1,334,-3
"1590",51,6,0.331783277767236,-1,1,-1,409,-4
"1591",51,7,0.197097422002153,-1,0,1,312,-3
"1592",51,8,0.152348319605886,-1,0,1,342,-2
"1593",51,9,0.194191945045914,1,1,1,766,-1
"1594",51,10,0.107747582802314,-1,1,-1,218,-2
"1595",51,11,0.14307462997643,-1,0,1,286,-1
"1596",51,12,0.127954574422748,-1,0,1,318,0
"1597",51,13,0.250710062050606,-1,0,1,332,1
"1598",51,14,0.255524402775992,-1,0,1,270,2
"1599",51,15,0.367079700192695,-1,1,-1,292,1
"1600",51,16,0.345321400674614,1,0,-1,324,0
"1601",51,17,0.386965693040328,-1,1,-1,342,-1
"1602",51,18,0.415586704296268,-1,0,1,59,0
"1603",51,19,0.51125342783257,-1,0,1,315,1
"1604",51,20,0.611022060592804,1,0,-1,312,0
"1605",51,21,0.655707153741225,-1,1,-1,288,-1
"1606",51,22,0.600128423169828,-1,0,1,364,0
"1607",51,23,0.657237163527482,1,0,-1,290,-1
"1608",51,24,0.747467748697356,1,1,1,126,0
"1609",51,25,0.704507098016298,-1,1,-1,724,-1
"1610",51,26,0.67457036012153,-1,0,1,639,0
"1611",51,27,0.774737134159416,-1,0,1,321,1
"1612",51,28,0.76380048408564,1,0,-1,109,0
"1613",51,29,0.809774046547883,-1,1,-1,174,-1
"1614",51,30,0.670862637199184,-1,0,1,476,0
"1615",51,31,0.70546924429187,-1,0,1,292,1
"1616",51,32,0.754374341746874,1,1,1,179,2
"1617",51,33,0.74863273690188,-1,1,-1,234,1
"1618",51,34,0.783261311560855,-1,0,1,337,2
"1619",51,35,0.852392795208307,1,0,-1,220,1
"1620",51,36,0.765016668805128,1,1,1,379,2
"1621",52,1,0.525026693753898,-1,1,-1,1141,-1
"1622",52,2,0.653663672628447,-1,0,1,463,0
"1623",52,3,0.662826245169203,1,0,-1,479,-1
"1624",52,4,0.608353459992928,-1,1,-1,448,-2
"1625",52,5,0.644899958294379,1,0,-1,721,-3
"1626",52,6,0.638752559553603,1,0,-1,351,-4
"1627",52,7,0.653323174144375,1,1,1,128,-3
"1628",52,8,0.682167845964502,-1,1,-1,832,-4
"1629",52,9,0.72054951032067,1,1,1,416,-3
"1630",52,10,0.767433420968268,-1,1,-1,400,-4
"1631",52,11,0.671657054912355,1,1,1,20,-3
"1632",52,12,0.749868788899711,1,0,-1,389,-4
"1633",52,13,0.756429200952077,1,0,-1,210,-5
"1634",52,14,0.704074374445273,-1,0,1,360,-4
"1635",52,15,0.475434736218187,1,0,-1,303,-5
"1636",52,16,0.518754175987798,1,0,-1,272,-6
"1637",52,17,0.391024592395553,-1,1,-1,138,-7
"1638",52,18,0.36914975625674,-1,1,-1,335,-8
"1639",52,19,0.369843644794267,-1,0,1,134,-7
"1640",52,20,0.398430450596175,-1,0,1,336,-6
"1641",52,21,0.327564345079409,1,0,-1,431,-7
"1642",52,22,0.31632059207697,-1,0,1,368,-6
"1643",52,23,0.356020165425708,-1,1,-1,106,-7
"1644",52,24,0.339167814849249,-1,1,-1,255,-8
"1645",52,25,0.357577440712375,-1,1,-1,73,-9
"1646",52,26,0.324797743436991,-1,0,1,90,-8
"1647",52,27,0.332369852824522,-1,0,1,256,-7
"1648",52,28,0.261273534651829,-1,0,1,864,-6
"1649",52,29,0.315168902044847,1,0,-1,27,-7
"1650",52,30,0.491352793075456,1,1,1,189,-6
"1651",52,31,0.538760465772098,-1,1,-1,144,-7
"1652",52,32,0.554236226939877,1,0,-1,80,-8
"1653",52,33,0.634767656027794,-1,0,1,40,-7
"1654",52,34,0.628987460019223,-1,0,1,32,-6
"1655",52,35,0.544238142264606,-1,1,-1,448,-7
"1656",52,36,0.585489303199671,1,1,1,48,-6
"1657",53,1,0.42002619584091,1,1,1,1134,1
"1658",53,2,0.486479124636165,-1,1,-1,1627,0
"1659",53,3,0.480156238511045,-1,0,1,481,1
"1660",53,4,0.336739444323465,1,0,-1,477,0
"1661",53,5,0.202129158994937,1,0,-1,1032,-1
"1662",53,6,0.254445284893784,-1,1,-1,731,-2
"1663",53,7,0.333405741513177,-1,1,-1,394,-3
"1664",53,8,0.271477416871676,-1,0,1,296,-2
"1665",53,9,0.207668177093048,-1,0,1,897,-1
"1666",53,10,0.291491131537039,-1,1,-1,470,-2
"1667",53,11,0.240392958052754,-1,1,-1,273,-3
"1668",53,12,0.356138269382247,1,0,-1,512,-4
"1669",53,13,0.309988051905749,1,1,1,349,-3
"1670",53,14,0.311881692710149,-1,1,-1,692,-4
"1671",53,15,0.415326689648193,-1,1,-1,641,-5
"1672",53,16,0.442587154882534,-1,0,1,37,-4
"1673",53,17,0.539179102238271,-1,0,1,262,-3
"1674",53,18,0.543358164359548,1,1,1,453,-2
"1675",53,19,0.493321955482612,1,1,1,391,-1
"1676",53,20,0.572928556235976,1,1,1,275,0
"1677",53,21,0.552888388722275,1,0,-1,643,-1
"1678",53,22,0.41449444695001,1,1,1,233,0
"1679",53,23,0.435276814708947,-1,1,-1,311,-1
"1680",53,24,0.41649088933925,-1,0,1,1191,0
"1681",53,25,0.547217407902756,1,0,-1,764,-1
"1682",53,26,0.576458140177039,-1,1,-1,255,-2
"1683",53,27,0.612115166723853,1,1,1,491,-1
"1684",53,28,0.692907577201853,1,1,1,304,0
"1685",53,29,0.680372439593016,-1,1,-1,249,-1
"1686",53,30,0.748960358070228,-1,1,-1,2413,-2
"1687",53,31,0.631666943996463,1,0,-1,305,-3
"1688",53,32,0.611718811327241,-1,1,-1,190,-4
"1689",53,33,0.632766305344871,1,1,1,481,-3
"1690",53,34,0.752415309194879,1,0,-1,53,-4
"1691",53,35,0.645152381987086,1,1,1,116,-3
"1692",53,36,0.52897058306522,1,1,1,787,-2
"1693",54,1,0.480332357436419,-1,1,-1,1375,-1
"1694",54,2,0.479581469499266,-1,0,1,575,0
"1695",54,3,0.515592954603778,-1,0,1,1179,1
"1696",54,4,0.426276636957564,-1,1,-1,3591,0
"1697",54,5,0.463534405499149,-1,0,1,708,1
"1698",54,6,0.416025018606516,1,0,-1,857,0
"1699",54,7,0.502326531490098,-1,1,-1,499,-1
"1700",54,8,0.431753975957458,1,1,1,568,0
"1701",54,9,0.398396813373563,-1,1,-1,817,-1
"1702",54,10,0.327706022096784,1,1,1,1146,0
"1703",54,11,0.275284081118558,-1,1,-1,984,-1
"1704",54,12,0.297488777683891,-1,0,1,606,0
"1705",54,13,0.305124555277114,-1,0,1,1504,1
"1706",54,14,0.212903817311681,-1,0,1,813,2
"1707",54,15,0.189498160563232,-1,0,1,1193,3
"1708",54,16,0.390176874929596,-1,1,-1,472,2
"1709",54,17,0.389643893656241,-1,1,-1,1045,1
"1710",54,18,0.474813815318047,1,1,1,551,2
"1711",54,19,0.530855277821416,1,1,1,1003,3
"1712",54,20,0.554319313550597,1,1,1,862,4
"1713",54,21,0.559865324982671,1,1,1,583,5
"1714",54,22,0.521420205396823,-1,1,-1,837,4
"1715",54,23,0.514808648853776,1,0,-1,702,3
"1716",54,24,0.535640534447151,-1,1,-1,422,2
"1717",54,25,0.593507908773528,-1,0,1,391,3
"1718",54,26,0.55953417169105,1,0,-1,1032,2
"1719",54,27,0.67161380479501,1,1,1,361,3
"1720",54,28,0.816350275093526,1,1,1,1333,4
"1721",54,29,0.819944186572208,1,1,1,178,5
"1722",54,30,0.871219770115649,1,1,1,1034,6
"1723",54,31,0.893154180932493,1,1,1,1432,7
"1724",54,32,0.719770544349813,-1,1,-1,1643,6
"1725",54,33,0.731110511164781,-1,0,1,1672,7
"1726",54,34,0.716078364238295,1,0,-1,1208,6
"1727",54,35,0.754403875430511,1,0,-1,126,5
"1728",54,36,0.825179846970336,1,1,1,688,6
"1729",56,1,0.439836488012224,1,0,-1,4267,-1
"1730",56,2,0.388235521664461,-1,0,1,3402,0
"1731",56,3,0.301938441703248,-1,0,1,3508,1
"1732",56,4,0.256857446224371,1,0,-1,1818,0
"1733",56,5,0.310144729375184,-1,1,-1,1951,-1
"1734",56,6,0.26762154104554,-1,0,1,505,0
"1735",56,7,0.241932465252622,NA,NA,NA,NA,NA
"1736",56,8,0.255464557172503,1,0,-1,1471,-1
"1737",56,9,0.363024096846017,-1,1,-1,1983,-2
"1738",56,10,0.399243233350258,-1,0,1,2594,-1
"1739",56,11,0.318915147231678,-1,0,1,1128,0
"1740",56,12,0.299567271801155,-1,0,1,1622,1
"1741",56,13,0.263724297005458,NA,NA,NA,NA,NA
"1742",56,14,0.304156165217861,1,0,-1,1083,0
"1743",56,15,0.278778834890622,1,1,1,1253,1
"1744",56,16,0.413287529077175,1,1,1,445,2
"1745",56,17,0.394565837887871,-1,0,1,679,3
"1746",56,18,0.407146907483859,-1,1,-1,479,2
"1747",56,19,0.522945155408969,1,0,-1,2121,1
"1748",56,20,0.557756038783625,1,1,1,1325,2
"1749",56,21,0.551424599060873,-1,1,-1,428,1
"1750",56,22,0.546866382448179,1,0,-1,510,0
"1751",56,23,0.516763499323488,-1,1,-1,402,-1
"1752",56,24,0.581006753711364,-1,0,1,2559,0
"1753",56,25,0.687794758849549,1,0,-1,762,-1
"1754",56,26,0.635782473296234,-1,1,-1,959,-2
"1755",56,27,0.663536978125842,-1,0,1,892,-1
"1756",56,28,0.573454155417513,-1,0,1,962,0
"1757",56,29,0.618069641450804,-1,0,1,601,1
"1758",56,30,0.661340905786867,-1,0,1,470,2
"1759",56,31,0.569137435157945,1,0,-1,504,1
"1760",56,32,0.543794647179651,-1,1,-1,605,0
"1761",56,33,0.615222390521471,1,0,-1,569,-1
"1762",56,34,0.632029325899748,1,0,-1,1348,-2
"1763",56,35,0.660105630688716,1,1,1,392,-1
"1764",56,36,0.713779694316301,1,1,1,673,0
"1765",57,1,0.477413911931217,-1,1,-1,2054,-1
"1766",57,2,0.44222869536901,-1,0,1,999,0
"1767",57,3,0.459018825451958,1,0,-1,769,-1
"1768",57,4,0.524750043724662,1,0,-1,944,-2
"1769",57,5,0.570132672032823,1,0,-1,1118,-3
"1770",57,6,0.571543079995075,1,1,1,879,-2
"1771",57,7,0.508916872372406,-1,1,-1,776,-3
"1772",57,8,0.426176573322231,1,0,-1,649,-4
"1773",57,9,0.39599511277961,1,1,1,494,-3
"1774",57,10,0.497443378193578,-1,1,-1,639,-4
"1775",57,11,0.466250345519954,-1,1,-1,592,-5
"1776",57,12,0.358287447721422,-1,1,-1,751,-6
"1777",57,13,0.376618861177339,-1,0,1,1098,-5
"1778",57,14,0.343804112511192,1,1,1,982,-4
"1779",57,15,0.357273346256482,-1,1,-1,952,-5
"1780",57,16,0.448260888769272,1,0,-1,639,-6
"1781",57,17,0.458200699320567,1,0,-1,961,-7
"1782",57,18,0.497583019932503,-1,1,-1,512,-8
"1783",57,19,0.44391915488215,-1,0,1,447,-7
"1784",57,20,0.334659467503338,1,0,-1,872,-8
"1785",57,21,0.462199617698851,-1,1,-1,736,-9
"1786",57,22,0.381722852582931,-1,0,1,654,-8
"1787",57,23,0.543763645074098,1,0,-1,721,-9
"1788",57,24,0.446385894368572,-1,1,-1,495,-10
"1789",57,25,0.426361327844238,1,0,-1,672,-11
"1790",57,26,0.63975665928686,1,1,1,710,-10
"1791",57,27,0.628505518808776,-1,1,-1,1446,-11
"1792",57,28,0.66506934448557,1,0,-1,624,-12
"1793",57,29,0.777277978901697,1,1,1,656,-11
"1794",57,30,0.789917025267236,1,0,-1,680,-12
"1795",57,31,0.802327377283986,1,1,1,424,-11
"1796",57,32,0.739104244129429,1,1,1,863,-10
"1797",57,33,0.736364362273708,1,0,-1,1017,-11
"1798",57,34,0.813117891644369,1,1,1,560,-10
"1799",57,35,0.870267450888598,1,1,1,583,-9
"1800",57,36,0.884178318380579,1,1,1,559,-8
"1801",58,1,0.5250710059423,1,1,1,1569,1
"1802",58,2,0.480626617344912,1,1,1,336,2
"1803",58,3,0.525247226731973,1,1,1,439,3
"1804",58,4,0.558646862809568,-1,1,-1,378,2
"1805",58,5,0.52624853179179,-1,0,1,313,3
"1806",58,6,0.380885747550929,-1,0,1,514,4
"1807",58,7,0.324029905199581,-1,0,1,547,5
"1808",58,8,0.314873892188761,-1,0,1,535,6
"1809",58,9,0.331411130600808,-1,0,1,542,7
"1810",58,10,0.255349965807972,-1,0,1,576,8
"1811",58,11,0.191383511700097,-1,0,1,568,9
"1812",58,12,0.25184069175413,1,0,-1,573,8
"1813",58,13,0.162308857888223,-1,1,-1,353,7
"1814",58,14,0.254003351850146,1,0,-1,488,6
"1815",58,15,0.276672282831573,1,1,1,615,7
"1816",58,16,0.327300319263378,1,1,1,523,8
"1817",58,17,0.272865704077866,1,1,1,393,9
"1818",58,18,0.247311325309873,-1,1,-1,375,8
"1819",58,19,0.296232743233991,-1,0,1,448,9
"1820",58,20,0.368873970880759,1,0,-1,439,8
"1821",58,21,0.461855451914217,1,1,1,443,9
"1822",58,22,0.596755541534238,-1,1,-1,316,8
"1823",58,23,0.666595133356857,1,0,-1,409,7
"1824",58,24,0.635051174725211,-1,1,-1,398,6
"1825",58,25,0.613480413917354,-1,1,-1,351,5
"1826",58,26,0.616514296072097,-1,0,1,311,6
"1827",58,27,0.628946013850931,1,0,-1,416,5
"1828",58,28,0.641516926818679,1,1,1,533,6
"1829",58,29,0.548299761054438,-1,1,-1,409,5
"1830",58,30,0.50655120323179,-1,0,1,247,6
"1831",58,31,0.467195017467256,1,0,-1,318,5
"1832",58,32,0.571269528888555,1,1,1,439,6
"1833",58,33,0.516164469670385,-1,1,-1,775,5
"1834",58,34,0.565943074153259,1,0,-1,472,4
"1835",58,35,0.656895951957204,1,1,1,408,5
"1836",58,36,0.694510284560395,-1,1,-1,392,4
"1837",59,1,0.412099196389318,-1,1,-1,3812,-1
"1838",59,2,0.445989830354088,1,1,1,1132,0
"1839",59,3,0.350229393901999,-1,1,-1,2297,-1
"1840",59,4,0.318113958130864,-1,1,-1,3857,-2
"1841",59,5,0.239921995590553,-1,1,-1,597,-3
"1842",59,6,0.21140594522532,-1,1,-1,660,-4
"1843",59,7,0.180249205454834,-1,0,1,413,-3
"1844",59,8,0.142121674781069,-1,0,1,1202,-2
"1845",59,9,0.347029870079791,-1,0,1,789,-1
"1846",59,10,0.286507684878631,-1,1,-1,4173,-2
"1847",59,11,0.360052019486424,-1,0,1,615,-1
"1848",59,12,0.308494949389759,-1,1,-1,2371,-2
"1849",59,13,0.273764277028264,1,0,-1,479,-3
"1850",59,14,0.352184588243212,-1,1,-1,361,-4
"1851",59,15,0.519161234115956,1,0,-1,338,-5
"1852",59,16,0.4254241519748,1,1,1,467,-4
"1853",59,17,0.392559744177301,-1,1,-1,423,-5
"1854",59,18,0.529231298096026,1,0,-1,1170,-6
"1855",59,19,0.552164479014241,1,1,1,392,-5
"1856",59,20,0.533560138157951,1,1,1,422,-4
"1857",59,21,0.526395512041849,1,1,1,393,-3
"1858",59,22,0.514211721932285,1,1,1,455,-2
"1859",59,23,0.492458943798935,1,1,1,324,-1
"1860",59,24,0.481066110997048,1,1,1,354,0
"1861",59,25,0.611325076945088,1,1,1,482,1
"1862",59,26,0.596737288655837,-1,1,-1,468,0
"1863",59,27,0.691642625237448,-1,1,-1,1372,-1
"1864",59,28,0.627466661433359,1,0,-1,267,-2
"1865",59,29,0.690946978636795,-1,1,-1,436,-3
"1866",59,30,0.747136170989556,1,0,-1,231,-4
"1867",59,31,0.781602524178335,1,1,1,352,-3
"1868",59,32,0.759487678647324,1,1,1,279,-2
"1869",59,33,0.740520322426917,1,1,1,330,-1
"1870",59,34,0.734486105131401,1,1,1,86,0
"1871",59,35,0.77996586422731,1,1,1,20,1
"1872",59,36,0.684056875733441,1,1,1,190,2
"1873",61,1,0.43493457236289,-1,1,-1,2026,-1
"1874",61,2,0.486646413444913,1,0,-1,1384,-2
"1875",61,3,0.502483060190738,1,1,1,1414,-1
"1876",61,4,0.455143372007868,1,1,1,715,0
"1877",61,5,0.415347009411282,1,1,1,989,1
"1878",61,6,0.46278361321232,NA,NA,NA,NA,NA
"1879",61,7,0.434743310644375,1,1,1,1705,2
"1880",61,8,0.460375932627136,1,0,-1,1312,1
"1881",61,9,0.588170005818062,1,1,1,985,2
"1882",61,10,0.533368787617976,-1,0,1,1067,3
"1883",61,11,0.509320076414979,-1,0,1,1341,4
"1884",61,12,0.500849519557442,-1,0,1,1143,5
"1885",61,13,0.649796142852889,-1,0,1,1579,6
"1886",61,14,0.66789121286969,1,1,1,1659,7
"1887",61,15,0.668141010383479,-1,1,-1,943,6
"1888",61,16,0.766442158679213,1,1,1,1544,7
"1889",61,17,0.847241327112489,1,1,1,1495,8
"1890",61,18,0.81279319008189,1,1,1,1385,9
"1891",61,19,0.776129905487558,1,0,-1,1377,8
"1892",61,20,0.767058161333702,1,1,1,284,9
"1893",61,21,0.820277986183081,1,1,1,1075,10
"1894",61,22,0.741578512531018,-1,1,-1,1429,9
"1895",61,23,0.621608267248455,1,0,-1,594,8
"1896",61,24,0.487914749903971,-1,0,1,800,9
"1897",61,25,0.459914723942866,-1,1,-1,1459,8
"1898",61,26,0.485884830735545,1,0,-1,674,7
"1899",61,27,0.459152530587972,1,1,1,1793,8
"1900",61,28,0.342035786292201,-1,1,-1,1333,7
"1901",61,29,0.395675999046395,-1,1,-1,1351,6
"1902",61,30,0.361466522499261,-1,0,1,1285,7
"1903",61,31,0.264993594265965,-1,0,1,589,8
"1904",61,32,0.288183990826636,-1,0,1,865,9
"1905",61,33,0.297636813969426,1,0,-1,832,8
"1906",61,34,0.438597698346181,-1,0,1,2915,9
"1907",61,35,0.462010629718641,-1,1,-1,3921,8
"1908",61,36,0.45263063983838,NA,NA,NA,NA,NA
"1909",62,1,0.550075601043476,1,0,-1,3090,-1
"1910",62,2,0.585807361625341,-1,1,-1,2762,-2
"1911",62,3,0.570191731725353,1,0,-1,886,-3
"1912",62,4,0.544619509432135,NA,NA,NA,NA,NA
"1913",62,5,0.573989594483629,-1,1,-1,1530,-4
"1914",62,6,0.709134550765263,1,1,1,1680,-3
"1915",62,7,0.691804243836921,1,0,-1,2655,-4
"1916",62,8,0.582303244470787,-1,1,-1,417,-5
"1917",62,9,0.633108613850891,1,0,-1,697,-6
"1918",62,10,0.654041626549644,1,1,1,3336,-5
"1919",62,11,0.540151367976574,-1,1,-1,455,-6
"1920",62,12,0.449292032861501,1,0,-1,1048,-7
"1921",62,13,0.366332557353115,1,0,-1,1183,-8
"1922",62,14,0.382842204721948,1,0,-1,625,-9
"1923",62,15,0.287353204868594,-1,0,1,312,-8
"1924",62,16,0.315148075728458,1,1,1,911,-7
"1925",62,17,0.284349925322756,-1,1,-1,2296,-8
"1926",62,18,0.321390522650319,1,0,-1,1574,-9
"1927",62,19,0.312932568512336,1,1,1,383,-8
"1928",62,20,0.314784918796015,1,0,-1,264,-9
"1929",62,21,0.29498670329469,-1,0,1,1671,-8
"1930",62,22,0.372926041228384,-1,1,-1,948,-9
"1931",62,23,0.405005350250311,-1,0,1,1220,-8
"1932",62,24,0.441741509877183,-1,0,1,992,-7
"1933",62,25,0.462517101454746,1,1,1,528,-6
"1934",62,26,0.557137299047896,-1,0,1,1280,-5
"1935",62,27,0.682954740618609,1,1,1,416,-4
"1936",62,28,0.736292663096799,-1,1,-1,384,-5
"1937",62,29,0.825672915407319,1,0,-1,1015,-6
"1938",62,30,0.851243283768573,1,0,-1,767,-7
"1939",62,31,0.658796516385205,1,1,1,312,-6
"1940",62,32,0.74178867574086,-1,0,1,416,-5
"1941",62,33,0.524060005568983,1,1,1,176,-4
"1942",62,34,0.435048129819653,-1,1,-1,1826,-5
"1943",62,35,0.448908437368493,-1,1,-1,1407,-6
"1944",62,36,0.449813998471424,1,0,-1,1240,-7
"1945",63,1,0.408844934217632,-1,1,-1,1139,-1
"1946",63,2,0.49235191665595,-1,0,1,843,0
"1947",63,3,0.512837560596791,1,0,-1,528,-1
"1948",63,4,0.41517096783075,-1,1,-1,211,-2
"1949",63,5,0.455619859355391,-1,0,1,97,-1
"1950",63,6,0.406536655589172,-1,0,1,14,0
"1951",63,7,0.479323531186108,-1,0,1,126,1
"1952",63,8,0.432213750630006,-1,0,1,113,2
"1953",63,9,0.356768801365433,-1,0,1,2187,3
"1954",63,10,0.2859542123659,-1,0,1,27,4
"1955",63,11,0.278483620959123,-1,0,1,57,5
"1956",63,12,0.273302316091043,-1,0,1,237,6
"1957",63,13,0.24926342760886,-1,0,1,206,7
"1958",63,14,0.248883349052814,-1,0,1,127,8
"1959",63,15,0.327835036979257,-1,0,1,46,9
"1960",63,16,0.339698159050684,-1,0,1,14,10
"1961",63,17,0.392423606506006,-1,0,1,329,11
"1962",63,18,0.326450340756812,-1,0,1,72,12
"1963",63,19,0.304818484043878,-1,0,1,147,13
"1964",63,20,0.324180182495162,-1,0,1,156,14
"1965",63,21,0.336626258540473,1,0,-1,142,13
"1966",63,22,0.454636106723929,1,0,-1,174,12
"1967",63,23,0.460006842349678,1,1,1,18,13
"1968",63,24,0.527561608312789,1,1,1,53,14
"1969",63,25,0.646777121774542,-1,1,-1,136,13
"1970",63,26,0.627427517786495,1,0,-1,17,12
"1971",63,27,0.695094960974778,-1,0,1,284,13
"1972",63,28,0.722115638114684,1,0,-1,154,12
"1973",63,29,0.666556080221174,1,0,-1,252,11
"1974",63,30,0.661184791487388,1,1,1,376,12
"1975",63,31,0.722425551445706,1,1,1,255,13
"1976",63,32,0.809241992973347,-1,1,-1,119,12
"1977",63,33,0.798800135731882,1,0,-1,97,11
"1978",63,34,0.817990811904898,1,0,-1,243,10
"1979",63,35,0.74339084476333,1,1,1,98,11
"1980",63,36,0.632227810710854,-1,1,-1,327,10
"1981",64,1,0.409153352971989,-1,1,-1,1751,-1
"1982",64,2,0.3214700000191,-1,0,1,642,0
"1983",64,3,0.375164811290491,-1,0,1,954,1
"1984",64,4,0.305389226404671,-1,0,1,1229,2
"1985",64,5,0.384876891408323,-1,0,1,2741,3
"1986",64,6,0.370511849441815,-1,0,1,2051,4
"1987",64,7,0.338868305854109,1,0,-1,941,3
"1988",64,8,0.307336626453118,1,1,1,737,4
"1989",64,9,0.247414033939296,1,1,1,792,5
"1990",64,10,0.206640330137818,1,1,1,1178,6
"1991",64,11,0.213409015521958,-1,1,-1,1109,5
"1992",64,12,0.252027753951607,-1,0,1,423,6
"1993",64,13,0.256461949791237,-1,0,1,741,7
"1994",64,14,0.404783752294036,-1,0,1,892,8
"1995",64,15,0.385917916117941,-1,0,1,1054,9
"1996",64,16,0.45311029267796,-1,0,1,2141,10
"1997",64,17,0.44654844403666,1,0,-1,1200,9
"1998",64,18,0.46711831185123,1,1,1,338,10
"1999",64,19,0.487411728702121,-1,1,-1,423,9
"2000",64,20,0.570460191494923,-1,0,1,340,10
"2001",64,21,0.528854159210915,1,0,-1,377,9
"2002",64,22,0.548759273717733,-1,1,-1,404,8
"2003",64,23,0.601201220435758,1,0,-1,547,7
"2004",64,24,0.590737532845688,1,1,1,1198,8
"2005",64,25,0.576187198610287,1,1,1,444,9
"2006",64,26,0.600386416096621,-1,1,-1,629,8
"2007",64,27,0.451669011907736,-1,0,1,571,9
"2008",64,28,0.557420626443005,-1,0,1,426,10
"2009",64,29,0.557077156733578,1,0,-1,611,9
"2010",64,30,0.643953640708292,1,1,1,416,10
"2011",64,31,0.656052211959884,-1,1,-1,526,9
"2012",64,32,0.802021301032105,1,0,-1,459,8
"2013",64,33,0.897248978436542,1,1,1,368,9
"2014",64,34,0.872892237489262,1,1,1,694,10
"2015",64,35,0.821283800221941,1,1,1,455,11
"2016",64,36,0.878097931066551,1,1,1,382,12
"2017",66,1,0.530885929241776,1,1,1,1298,1
"2018",66,2,0.455223090401202,-1,1,-1,1328,0
"2019",66,3,0.352766784002815,-1,0,1,593,1
"2020",66,4,0.507707226769909,-1,0,1,1340,2
"2021",66,5,0.541999721736903,1,0,-1,904,1
"2022",66,6,0.463275819836419,1,1,1,743,2
"2023",66,7,0.402414193676124,-1,1,-1,632,1
"2024",66,8,0.298185263754659,-1,0,1,676,2
"2025",66,9,0.392244889529753,1,1,1,644,3
"2026",66,10,0.390425572118982,-1,1,-1,715,2
"2027",66,11,0.339772851295606,1,0,-1,565,1
"2028",66,12,0.297861258553342,-1,1,-1,1001,0
"2029",66,13,0.187323355911831,-1,1,-1,879,-1
"2030",66,14,0.103654457058918,-1,1,-1,863,-2
"2031",66,15,0.240641083096755,1,0,-1,447,-3
"2032",66,16,0.190234252029523,-1,1,-1,410,-4
"2033",66,17,0.131531100038972,-1,0,1,653,-3
"2034",66,18,0.182054806944554,1,0,-1,886,-4
"2035",66,19,0.280324945918394,1,1,1,657,-3
"2036",66,20,0.491423406735575,-1,0,1,536,-2
"2037",66,21,0.55784921384701,-1,0,1,854,-1
"2038",66,22,0.661306270987699,-1,1,-1,725,-2
"2039",66,23,0.67685611384296,-1,1,-1,736,-3
"2040",66,24,0.737667353682838,1,0,-1,552,-4
"2041",66,25,0.749116054145285,-1,1,-1,1050,-5
"2042",66,26,0.839213679914093,1,1,1,2184,-4
"2043",66,27,0.775356512054489,1,1,1,3194,-3
"2044",66,28,0.766167641832942,1,1,1,2545,-2
"2045",66,29,0.789954928341101,-1,1,-1,2901,-3
"2046",66,30,0.754544743932551,1,0,-1,1166,-4
"2047",66,31,0.788422227706329,-1,1,-1,1227,-5
"2048",66,32,0.858809619479432,1,1,1,606,-4
"2049",66,33,0.776203558743016,1,1,1,2151,-3
"2050",66,34,0.846404617201385,1,1,1,933,-2
"2051",66,35,0.875060156133926,1,1,1,475,-1
"2052",66,36,0.801241621106011,1,1,1,858,0
"2053",67,1,0.434525779914111,1,1,1,3823,1
"2054",67,2,0.449262977157196,-1,1,-1,1713,0
"2055",67,3,0.465633034086752,-1,1,-1,753,-1
"2056",67,4,0.57260868712622,-1,0,1,848,0
"2057",67,5,0.53117857490793,1,0,-1,550,-1
"2058",67,6,0.632786233654194,-1,0,1,888,0
"2059",67,7,0.569127566623486,1,0,-1,344,-1
"2060",67,8,0.610521714885244,1,0,-1,409,-2
"2061",67,9,0.62937442085894,1,0,-1,783,-3
"2062",67,10,0.751153429646483,1,1,1,359,-2
"2063",67,11,0.65992053619901,1,1,1,408,-1
"2064",67,12,0.681077110730872,1,1,1,328,0
"2065",67,13,0.722022787451454,1,1,1,279,1
"2066",67,14,0.431810205621178,-1,1,-1,335,0
"2067",67,15,0.409877358504289,1,0,-1,361,-1
"2068",67,16,0.384008358249641,1,1,1,288,0
"2069",67,17,0.53140259145351,-1,1,-1,329,-1
"2070",67,18,0.637735710065782,1,1,1,1910,0
"2071",67,19,0.512603424274021,1,1,1,266,1
"2072",67,20,0.552215108646343,1,1,1,262,2
"2073",67,21,0.488347165457697,-1,1,-1,264,1
"2074",67,22,0.54189996194211,-1,1,-1,272,0
"2075",67,23,0.494217489354959,1,0,-1,256,-1
"2076",67,24,0.49718268569049,1,1,1,352,0
"2077",67,25,0.477981424482416,1,1,1,279,1
"2078",67,26,0.599462485974256,1,1,1,335,2
"2079",67,27,0.493275546940016,1,1,1,409,3
"2080",67,28,0.355689771358072,-1,1,-1,305,2
"2081",67,29,0.210559908508788,-1,0,1,615,3
"2082",67,30,0.17163085265134,-1,0,1,505,4
"2083",67,31,0.175510350749158,-1,0,1,321,5
"2084",67,32,0.186370279563339,-1,1,-1,343,4
"2085",67,33,0.30117444018731,-1,0,1,737,5
"2086",67,34,0.298433096502613,-1,0,1,392,6
"2087",67,35,0.263372482940087,-1,0,1,343,7
"2088",67,36,0.216413122604157,-1,0,1,232,8
"2089",68,1,0.547702331295107,1,0,-1,1236,-1
"2090",68,2,0.573984509234836,1,1,1,494,0
"2091",68,3,0.6520574842493,1,1,1,298,1
"2092",68,4,0.539013711113056,1,1,1,310,2
"2093",68,5,0.610720458885423,-1,1,-1,284,1
"2094",68,6,0.6403806325506,1,0,-1,432,0
"2095",68,7,0.641777407362388,-1,0,1,1206,1
"2096",68,8,0.700865597849767,1,0,-1,940,0
"2097",68,9,0.844701505527139,-1,0,1,286,1
"2098",68,10,0.843289244745918,1,1,1,344,2
"2099",68,11,0.829581537276532,1,0,-1,590,1
"2100",68,12,0.84959973568685,1,1,1,692,2
"2101",68,13,0.735095320860179,1,1,1,318,3
"2102",68,14,0.657849384752901,1,1,1,306,4
"2103",68,15,0.601847399969213,1,1,1,322,5
"2104",68,16,0.736037484111356,1,0,-1,301,4
"2105",68,17,0.783120166552474,1,0,-1,277,3
"2106",68,18,0.645003021250045,-1,1,-1,307,2
"2107",68,19,0.606522648629737,-1,1,-1,286,1
"2108",68,20,0.538113619293843,1,0,-1,281,0
"2109",68,21,0.495340139793843,-1,0,1,607,1
"2110",68,22,0.348756963094103,-1,1,-1,310,0
"2111",68,23,0.33369633073089,1,1,1,259,1
"2112",68,24,0.290429003677346,-1,1,-1,83,0
"2113",68,25,0.253649857743838,-1,1,-1,351,-1
"2114",68,26,0.305983551348427,-1,1,-1,277,-2
"2115",68,27,0.282008801653182,-1,0,1,259,-1
"2116",68,28,0.215146960589045,-1,1,-1,519,-2
"2117",68,29,0.204751640681633,1,1,1,383,-1
"2118",68,30,0.214185589879028,1,1,1,287,0
"2119",68,31,0.27886565574444,-1,1,-1,314,-1
"2120",68,32,0.253106795545309,-1,0,1,256,0
"2121",68,33,0.319563456924577,1,1,1,392,1
"2122",68,34,0.272959909082062,-1,0,1,323,2
"2123",68,35,0.189608338338821,1,1,1,315,3
"2124",68,36,0.154086113325404,-1,1,-1,639,2
"2125",69,1,0.485896267974749,-1,0,1,1400,1
"2126",69,2,0.370078611072045,-1,0,1,338,2
"2127",69,3,0.392601138313952,-1,0,1,336,3
"2128",69,4,0.337080944383065,1,0,-1,272,2
"2129",69,5,0.2769066905818,-1,1,-1,375,1
"2130",69,6,0.243396993141791,-1,1,-1,256,0
"2131",69,7,0.210563595194347,-1,0,1,344,1
"2132",69,8,0.295450300635465,-1,0,1,248,2
"2133",69,9,0.307211707150162,1,0,-1,335,1
"2134",69,10,0.359085627324176,-1,1,-1,80,0
"2135",69,11,0.351685628904152,-1,0,1,55,1
"2136",69,12,0.358230498901397,-1,0,1,338,2
"2137",69,13,0.472634390813634,-1,0,1,126,3
"2138",69,14,0.483038012866991,-1,1,-1,624,2
"2139",69,15,0.426439018626168,-1,0,1,383,3
"2140",69,16,0.40187690277791,-1,0,1,519,4
"2141",69,17,0.389304859236438,-1,0,1,360,5
"2142",69,18,0.415485061186256,-1,0,1,79,6
"2143",69,19,0.505471393636327,-1,0,1,519,7
"2144",69,20,0.687223248182603,-1,0,1,496,8
"2145",69,21,0.715146817325241,1,0,-1,464,7
"2146",69,22,0.811694247987855,1,1,1,372,8
"2147",69,23,0.711642656000978,1,1,1,225,9
"2148",69,24,0.644271474255307,1,1,1,378,10
"2149",69,25,0.681977693992288,1,1,1,597,11
"2150",69,26,0.699423163096201,1,1,1,407,12
"2151",69,27,0.698387118275307,1,1,1,984,13
"2152",69,28,0.651800254302322,1,1,1,48,14
"2153",69,29,0.727455753937803,-1,1,-1,416,13
"2154",69,30,0.634689743344731,1,1,1,359,14
"2155",69,31,0.675407213744464,1,1,1,88,15
"2156",69,32,0.678118458265094,1,1,1,360,16
"2157",69,33,0.611097401268114,1,1,1,392,17
"2158",69,34,0.501305552804143,-1,1,-1,608,16
"2159",69,35,0.502356370516891,-1,0,1,326,17
"2160",69,36,0.441713214388144,-1,0,1,448,18
"2161",70,1,0.482692481321752,-1,1,-1,1667,-1
"2162",70,2,0.469663146490102,1,0,-1,739,-2
"2163",70,3,0.299321442491113,-1,0,1,836,-1
"2164",70,4,0.269566965241362,-1,0,1,783,0
"2165",70,5,0.250510262574069,-1,0,1,781,1
"2166",70,6,0.273061278517987,-1,0,1,779,2
"2167",70,7,0.177423038060941,-1,0,1,935,3
"2168",70,8,0.262646327698157,1,0,-1,879,2
"2169",70,9,0.22648149732254,-1,1,-1,810,1
"2170",70,10,0.332299693895066,-1,0,1,605,2
"2171",70,11,0.378119523869941,-1,0,1,603,3
"2172",70,12,0.34032341491272,1,0,-1,679,2
"2173",70,13,0.402959498157636,-1,0,1,741,3
"2174",70,14,0.390315064603615,1,0,-1,589,2
"2175",70,15,0.393895794747238,1,0,-1,541,1
"2176",70,16,0.321697386941062,-1,1,-1,496,0
"2177",70,17,0.28699148481001,1,1,1,590,1
"2178",70,18,0.28409583295056,-1,1,-1,623,0
"2179",70,19,0.382576781614422,1,0,-1,684,-1
"2180",70,20,0.485773619630876,1,0,-1,650,-2
"2181",70,21,0.551614849259674,1,0,-1,517,-3
"2182",70,22,0.567149919608973,1,1,1,464,-2
"2183",70,23,0.70584376998358,-1,1,-1,621,-3
"2184",70,24,0.57486542221863,1,0,-1,434,-4
"2185",70,25,0.574778035200034,1,1,1,764,-3
"2186",70,26,0.587934685807355,1,1,1,660,-2
"2187",70,27,0.582127754826311,1,1,1,964,-1
"2188",70,28,0.666071989238245,1,1,1,599,0
"2189",70,29,0.747834599775523,1,1,1,620,1
"2190",70,30,0.745757034182259,1,1,1,618,2
"2191",70,31,0.719313655207149,1,1,1,629,3
"2192",70,32,0.74356349333656,1,1,1,584,4
"2193",70,33,0.742125299981287,1,1,1,566,5
"2194",70,34,0.667347474663094,1,1,1,554,6
"2195",70,35,0.676016279632816,-1,1,-1,587,5
"2196",70,36,0.766425557825949,1,0,-1,661,4
"2197",72,1,0.496530565666035,1,1,1,2124,1
"2198",72,2,0.579219982674981,-1,1,-1,1061,0
"2199",72,3,0.668573849805879,1,1,1,316,1
"2200",72,4,0.701495969079777,1,1,1,330,2
"2201",72,5,0.61396039070524,1,1,1,105,3
"2202",72,6,0.605826125274538,1,1,1,395,4
"2203",72,7,0.480628127393751,-1,1,-1,569,3
"2204",72,8,0.47740351134654,1,0,-1,250,2
"2205",72,9,0.413118710111863,-1,1,-1,325,1
"2206",72,10,0.64214595443014,-1,1,-1,218,0
"2207",72,11,0.707480329635037,-1,0,1,281,1
"2208",72,12,0.684206606716504,1,0,-1,310,0
"2209",72,13,0.707212205379824,1,0,-1,294,-1
"2210",72,14,0.58016865544323,-1,0,1,216,0
"2211",72,15,0.654846365300769,1,0,-1,294,-1
"2212",72,16,0.646760700310293,-1,0,1,10,0
"2213",72,17,0.618227051255891,-1,0,1,138,1
"2214",72,18,0.748882620297163,1,0,-1,279,0
"2215",72,19,0.762154069817022,1,1,1,167,1
"2216",72,20,0.718441014092791,-1,1,-1,61,0
"2217",72,21,0.667912332065765,1,1,1,244,1
"2218",72,22,0.587376727805288,1,1,1,294,2
"2219",72,23,0.487315399024589,1,1,1,302,3
"2220",72,24,0.392761364041702,-1,1,-1,281,2
"2221",72,25,0.384360551611128,-1,1,-1,154,1
"2222",72,26,0.258183832738615,-1,0,1,804,2
"2223",72,27,0.185732414503683,-1,0,1,163,3
"2224",72,28,0.127864871221904,-1,0,1,189,4
"2225",72,29,0.156211626480317,-1,0,1,232,5
"2226",72,30,0.25618600110966,1,0,-1,184,4
"2227",72,31,0.303150639774031,1,1,1,241,5
"2228",72,32,0.382837280749981,-1,1,-1,20,4
"2229",72,33,0.371772714348396,-1,1,-1,198,3
"2230",72,34,0.385616458585473,1,1,1,79,4
"2231",72,35,0.507902502210639,1,1,1,79,5
"2232",72,36,0.496142030475636,-1,1,-1,25,4
"2233",73,1,0.543080217763782,1,1,1,4118,1
"2234",73,2,0.518955214889916,1,1,1,614,2
"2235",73,3,0.544759325363963,1,1,1,400,3
"2236",73,4,0.53205990981359,-1,1,-1,535,2
"2237",73,5,0.718691428066346,-1,0,1,447,3
"2238",73,6,0.79386612084725,1,0,-1,503,2
"2239",73,7,0.846347159561057,1,1,1,352,3
"2240",73,8,0.759587159633327,-1,1,-1,345,2
"2241",73,9,0.699453135143104,-1,0,1,783,3
"2242",73,10,0.665915581178574,-1,1,-1,344,2
"2243",73,11,0.503868914766265,-1,0,1,503,3
"2244",73,12,0.509961070818337,1,0,-1,535,2
"2245",73,13,0.425732998499278,-1,1,-1,105,1
"2246",73,14,0.3398916139829,-1,0,1,319,2
"2247",73,15,0.361529696286976,-1,0,1,431,3
"2248",73,16,0.355284463995499,-1,0,1,417,4
"2249",73,17,0.366917465398884,-1,0,1,303,5
"2250",73,18,0.291563711227857,-1,0,1,568,6
"2251",73,19,0.158302719792191,-1,0,1,479,7
"2252",73,20,0.189450566061312,-1,0,1,295,8
"2253",73,21,0.293815935984896,-1,0,1,433,9
"2254",73,22,0.26058025465949,1,0,-1,408,8
"2255",73,23,0.292121745011102,-1,1,-1,463,7
"2256",73,24,0.369913262064068,1,0,-1,479,6
"2257",73,25,0.385598136690889,1,1,1,433,7
"2258",73,26,0.349549375002007,1,1,1,312,8
"2259",73,27,0.54975394693229,-1,1,-1,328,7
"2260",73,28,0.562647880985476,1,0,-1,392,6
"2261",73,29,0.457931534440989,1,1,1,414,7
"2262",73,30,0.420434846859859,-1,1,-1,464,6
"2263",73,31,0.463935762421529,-1,1,-1,1375,5
"2264",73,32,0.482156414202765,-1,0,1,248,6
"2265",73,33,0.522562845193015,-1,0,1,231,7
"2266",73,34,0.543456740099096,-1,0,1,345,8
"2267",73,35,0.506149810640807,-1,0,1,592,9
"2268",73,36,0.42201344190759,-1,0,1,280,10
"2269",74,1,0.447530633538611,-1,1,-1,773,-1
"2270",74,2,0.433465127046161,1,0,-1,1024,-2
"2271",74,3,0.469011945631332,-1,1,-1,434,-3
"2272",74,4,0.359220168800115,1,0,-1,398,-4
"2273",74,5,0.338122157837122,-1,0,1,307,-3
"2274",74,6,0.364141120538727,1,1,1,308,-2
"2275",74,7,0.367047420855405,-1,1,-1,412,-3
"2276",74,8,0.351641571779224,-1,0,1,316,-2
"2277",74,9,0.332013025985988,-1,0,1,334,-1
"2278",74,10,0.349084484211707,-1,0,1,702,0
"2279",74,11,0.341863289621538,-1,0,1,510,1
"2280",74,12,0.336890078687356,1,1,1,522,2
"2281",74,13,0.243275148986194,-1,0,1,317,3
"2282",74,14,0.336843210512273,-1,0,1,335,4
"2283",74,15,0.470241327098361,-1,1,-1,602,3
"2284",74,16,0.380939855415798,-1,1,-1,319,2
"2285",74,17,0.308871843113323,-1,0,1,301,3
"2286",74,18,0.35714031281973,1,0,-1,346,2
"2287",74,19,0.500666391437051,-1,0,1,1063,3
"2288",74,20,0.458020588304948,-1,0,1,363,4
"2289",74,21,0.527085288702432,1,0,-1,327,3
"2290",74,22,0.6349229106733,-1,0,1,33,4
"2291",74,23,0.734650140737622,-1,0,1,251,5
"2292",74,24,0.765673001517884,1,0,-1,332,4
"2293",74,25,0.801547153043978,-1,1,-1,1118,3
"2294",74,26,0.783703191185611,1,0,-1,41,2
"2295",74,27,0.827145605788536,1,1,1,295,3
"2296",74,28,0.724482188297107,1,1,1,286,4
"2297",74,29,0.844090542319476,1,1,1,541,5
"2298",74,30,0.848076179555008,1,1,1,666,6
