"","SubID","trial_num","pUP","stock_outcome","Advisor","AdvisorCorrect","choice","outcome","rt","tally"
"1",1,1,0.544425779860467,-1,2,1,0,-1,2556,-4
"2",1,2,0.480930291646153,-1,3,0,0,1,3451,-3
"3",1,3,0.383016454907239,-1,1,1,0,-1,2915,-4
"4",1,4,0.335926970683437,NA,3,NA,NA,NA,NA,-4
"5",1,5,0.39112931821651,1,2,0,0,1,1424,-3
"6",1,6,0.175659875639436,1,1,0,0,1,1396,-2
"7",1,7,0.263602470922934,-1,2,1,1,1,2582,-1
"8",1,8,0.383325101631728,-1,1,1,1,1,1471,0
"9",1,9,0.283636326866037,-1,3,0,1,-1,1683,-1
"10",1,10,0.262080672841571,1,1,1,0,-1,1844,-2
"11",1,11,0.358000026578103,-1,2,0,1,-1,957,-3
"12",1,12,0.309733755798443,-1,3,1,1,1,1088,-2
"13",1,13,0.289010708192158,-1,2,0,1,-1,499,-3
"14",1,14,0.457971262373504,-1,3,1,1,1,1097,-2
"15",1,15,0.449340492318165,-1,1,1,0,-1,1765,-3
"16",1,16,0.387412140814274,-1,3,0,0,1,1695,-2
"17",1,17,0.334715821391101,1,2,1,0,-1,913,-3
"18",1,18,0.339607721907744,-1,1,1,1,1,878,-2
"19",1,19,0.275354788257182,-1,2,1,0,-1,1596,-3
"20",1,20,0.34950186112916,-1,1,1,1,1,1306,-2
"21",1,21,0.322912630805687,-1,3,0,0,1,1127,-1
"22",1,22,0.222703594108545,-1,1,1,1,1,1317,0
"23",1,23,0.179386052225975,-1,2,0,1,-1,2343,-1
"24",1,24,0.176386814343796,-1,1,0,1,-1,961,-2
"25",1,25,0.145842402535181,-1,3,1,0,-1,315,-3
"26",1,26,0.19834557680549,1,2,1,0,-1,541,-4
"27",1,27,0.320499832737095,-1,3,0,0,1,559,-3
"28",1,28,0.261888778403019,-1,2,0,0,1,839,-2
"29",1,29,0.41993650771332,-1,1,0,1,-1,1121,-3
"30",1,30,0.486575788961856,-1,2,0,0,1,1055,-2
"31",1,31,0.490192998931008,1,3,0,0,1,775,-1
"32",1,32,0.529725623366226,-1,1,1,1,1,3139,0
"33",1,33,0.508200132506952,-1,3,1,0,-1,1010,-1
"34",1,34,0.538524586971338,1,1,1,1,1,1280,0
"35",1,35,0.520574731988817,1,2,1,0,-1,1520,-1
"36",1,36,0.517413244693316,-1,1,0,1,-1,1187,-2
"37",1,37,0.557505717204927,-1,3,0,0,1,2032,-1
"38",1,38,0.654153405193093,1,2,0,0,1,475,0
"39",1,39,0.744220517968716,1,3,0,0,1,775,1
"40",1,40,0.783491438698121,1,2,0,0,1,652,2
"41",1,41,0.880301882376485,1,1,0,1,-1,1499,1
"42",1,42,0.894093818866845,1,2,0,0,1,716,2
"43",1,43,0.603395087675524,1,3,0,0,1,1578,3
"44",1,44,0.600506190182115,1,2,1,0,-1,1196,2
"45",1,45,0.636490837288416,1,1,1,1,1,867,3
"46",1,46,0.586345535157057,1,3,0,0,1,975,4
"47",1,47,0.587677678500576,-1,1,1,1,1,1194,5
"48",1,48,0.609232564121604,-1,3,0,0,1,851,6
"49",1,49,0.566058394477631,1,2,1,0,-1,837,5
"50",1,50,0.510940119771377,1,3,1,0,-1,777,4
"51",1,51,0.453362793940366,-1,1,1,1,1,1813,5
"52",1,52,0.444054194804043,-1,2,0,0,1,686,6
"53",1,53,0.541549607590511,-1,1,1,1,1,1009,7
"54",1,54,0.650152240645222,1,2,1,0,-1,743,6
"55",1,55,0.649223954565173,1,3,0,0,1,446,7
"56",1,56,0.809238564271167,1,2,1,0,-1,621,6
"57",1,57,0.891495996985916,1,1,1,1,1,1200,7
"58",1,58,0.7812111714352,1,3,0,0,1,724,8
"59",1,59,0.768776728148541,1,1,1,1,1,949,9
"60",1,60,0.832439025085797,-1,3,0,0,1,699,10
"61",2,1,0.499678062740713,1,1,0,0,1,2188,18
"62",2,2,0.538066857983563,1,2,1,0,-1,1183,17
"63",2,3,0.643336971435513,1,3,0,0,1,951,18
"64",2,4,0.599323994458883,1,2,1,0,-1,1560,17
"65",2,5,0.535521052758416,-1,1,0,0,1,848,18
"66",2,6,0.617177110523473,-1,3,0,0,1,743,19
"67",2,7,0.68964564539639,1,1,0,1,-1,1488,18
"68",2,8,0.58333281452871,-1,3,0,0,1,663,19
"69",2,9,0.571534198212556,-1,2,0,1,-1,992,18
"70",2,10,0.649012141622785,1,3,0,0,1,304,19
"71",2,11,0.58490279320397,1,1,1,0,-1,544,18
"72",2,12,0.509542056335891,-1,2,1,1,1,528,19
"73",2,13,0.537701806182146,1,1,1,1,1,296,20
"74",2,14,0.606882882193899,1,2,0,0,1,295,21
"75",2,15,0.687439143978674,1,3,0,0,1,584,22
"76",2,16,0.836326510604908,1,2,1,0,-1,384,21
"77",2,17,0.799645672928362,1,1,1,1,1,335,22
"78",2,18,0.881084218723816,1,3,0,1,-1,360,21
"79",2,19,0.79972522684209,-1,1,1,0,-1,320,20
"80",2,20,0.724021825530249,-1,3,0,0,1,296,21
"81",2,21,0.713266758786309,-1,2,0,0,1,408,22
"82",2,22,0.74623051706884,1,3,0,0,1,344,23
"83",2,23,0.840906547229422,1,1,1,0,-1,199,22
"84",2,24,0.819268465212607,1,3,1,0,-1,288,21
"85",2,25,0.775874935628301,1,2,0,0,1,297,22
"86",2,26,0.708217712275248,1,1,1,0,-1,296,21
"87",2,27,0.68094703132559,-1,2,0,1,-1,304,20
"88",2,28,0.789487619279179,1,1,1,1,1,328,21
"89",2,29,0.692738974321848,1,3,1,1,1,519,22
"90",2,30,0.642374396096691,1,1,0,0,1,288,23
"91",2,31,0.678816858151988,1,2,1,0,-1,256,22
"92",2,32,0.583401081715624,-1,3,0,1,-1,88,21
"93",2,33,0.518137468037407,1,2,0,1,-1,64,20
"94",2,34,0.441578025688037,-1,3,1,0,-1,296,19
"95",2,35,0.395327077200589,-1,1,1,0,-1,608,18
"96",2,36,0.403283932520792,-1,3,0,1,-1,64,17
"97",2,37,0.332890502882001,-1,2,1,1,1,24,18
"98",2,38,0.232751173817173,-1,1,1,1,1,256,19
"99",2,39,0.203762083744496,1,2,0,1,-1,311,18
"100",2,40,0.30512353763698,-1,1,1,0,-1,184,17
"101",2,41,0.360464220643156,-1,3,0,0,1,248,18
"102",2,42,0.422923955631792,-1,1,1,1,1,247,19
"103",2,43,0.56571101841785,-1,2,1,1,1,312,20
"104",2,44,0.474464496848461,1,1,0,0,1,280,21
"105",2,45,0.450842629737225,1,3,1,0,-1,263,20
"106",2,46,0.439127621257844,1,2,0,0,1,272,21
"107",2,47,0.365764632012436,1,3,0,1,-1,352,20
"108",2,48,0.366616909080908,1,2,1,1,1,311,21
"109",2,49,0.320285560965997,-1,1,1,0,-1,304,20
"110",2,50,0.284329264902958,-1,2,1,0,-1,247,19
"111",2,51,0.359041113709996,1,3,0,0,1,128,20
"112",2,52,0.33446065321106,-1,1,1,0,-1,416,19
"113",2,53,0.309696342720334,-1,3,0,1,-1,304,18
"114",2,54,0.260441789622561,-1,1,1,0,-1,263,17
"115",2,55,0.245977008437293,1,2,0,1,-1,160,16
"116",2,56,0.194393239641238,-1,1,1,1,1,88,17
"117",2,57,0.115401083715561,-1,3,1,1,1,175,18
"118",2,58,0.106276502598357,1,2,0,0,1,280,19
"119",2,59,0.136306806570555,-1,3,0,0,1,432,20
"120",2,60,0.316463964063854,-1,2,1,0,-1,439,19
"121",3,1,0.427796571003273,-1,3,0,0,1,1470,3
"122",3,2,0.416946498460018,-1,1,0,1,-1,1165,2
"123",3,3,0.411909819730754,1,2,0,1,-1,600,1
"124",3,4,0.405872490542734,1,1,1,0,-1,422,0
"125",3,5,0.332455428634267,-1,3,0,0,1,969,1
"126",3,6,0.277248996167595,-1,2,0,0,1,934,2
"127",3,7,0.238986623791673,-1,3,0,0,1,1045,3
"128",3,8,0.160537057245028,-1,2,1,0,-1,719,2
"129",3,9,0.265320607759382,1,1,1,1,1,651,3
"130",3,10,0.221083806691327,-1,2,1,0,-1,799,2
"131",3,11,0.206169631339847,-1,3,0,0,1,805,3
"132",3,12,0.179929887934549,-1,1,1,1,1,611,4
"133",3,13,0.165563031792142,-1,3,1,1,1,1015,5
"134",3,14,0.104923786730317,-1,1,1,1,1,623,6
"135",3,15,0.122535147918843,-1,2,0,1,-1,748,5
"136",3,16,0.244558861200741,-1,1,1,1,1,660,6
"137",3,17,0.245141333431375,-1,3,0,0,1,1831,7
"138",3,18,0.311389635977422,-1,2,1,1,1,658,8
"139",3,19,0.247725780302438,-1,3,0,0,1,866,9
"140",3,20,0.207220473654689,-1,2,0,1,-1,735,8
"141",3,21,0.168251765681557,-1,1,1,1,1,543,9
"142",3,22,0.128847726858468,-1,2,1,1,1,717,10
"143",3,23,0.191094269696745,-1,3,0,0,1,933,11
"144",3,24,0.149821217277534,-1,2,1,1,1,832,12
"145",3,25,0.283335287619368,1,1,0,1,-1,562,11
"146",3,26,0.287708756663744,-1,3,1,0,-1,1031,10
"147",3,27,0.325269290148974,-1,1,1,1,1,581,11
"148",3,28,0.343867434216983,1,3,0,0,1,887,12
"149",3,29,0.452308506817649,1,2,0,1,-1,443,11
"150",3,30,0.443114960083319,1,3,0,0,1,614,12
"151",3,31,0.511873394229034,1,1,0,1,-1,703,11
"152",3,32,0.568647979650747,1,2,1,1,1,700,12
"153",3,33,0.680551205128994,1,1,1,1,1,532,13
"154",3,34,0.732120890798905,1,2,0,0,1,1265,14
"155",3,35,0.698296368196821,1,3,0,0,1,844,15
"156",3,36,0.731131253926669,1,2,1,0,-1,955,14
"157",3,37,0.649317686594136,1,1,1,1,1,488,15
"158",3,38,0.730864186791028,1,3,0,0,1,519,16
"159",3,39,0.649739637993724,1,1,1,1,1,654,17
"160",3,40,0.722170524943265,1,3,0,0,1,886,18
"161",3,41,0.848413566154124,1,2,1,1,1,563,19
"162",3,42,0.863738639667674,1,3,1,0,-1,638,18
"163",3,43,0.755556428915522,1,1,1,1,1,1051,19
"164",3,44,0.849810566199494,1,3,0,1,-1,1614,18
"165",3,45,0.868369137378697,1,2,1,1,1,971,19
"166",3,46,0.858385589052165,1,1,0,1,-1,580,18
"167",3,47,0.783821173327124,1,2,1,1,1,815,19
"168",3,48,0.775924598568434,1,1,1,1,1,2404,20
"169",3,49,0.792141657749311,1,3,1,0,-1,1358,19
"170",3,50,0.800428302130048,1,1,0,1,-1,584,18
"171",3,51,0.83797449849217,1,2,0,0,1,1384,19
"172",3,52,0.723382109569435,1,3,0,1,-1,702,18
"173",3,53,0.717434701375945,1,2,0,1,-1,966,17
"174",3,54,0.798307844094643,1,3,0,0,1,1536,18
"175",3,55,0.774678860046171,1,1,1,1,1,663,19
"176",3,56,0.868384187099516,1,3,1,0,-1,1087,18
"177",3,57,0.841572350416736,-1,2,0,0,1,848,19
"178",3,58,0.737828015674287,1,1,1,1,1,575,20
"179",3,59,0.788337715037906,1,2,0,0,1,1414,21
"180",3,60,0.770109694685169,1,1,1,1,1,864,22
"181",4,1,0.593240239843726,-1,1,1,1,1,1993,13
"182",4,2,0.511406727830914,-1,2,1,0,-1,1359,12
"183",4,3,0.559285392070597,1,3,0,1,-1,1200,11
"184",4,4,0.55032114668268,-1,2,0,1,-1,2350,10
"185",4,5,0.584427841649273,-1,1,0,0,1,1761,11
"186",4,6,0.644104177756506,1,3,0,1,-1,1121,10
"187",4,7,0.591919694524238,1,1,1,1,1,1584,11
"188",4,8,0.680861207105407,1,3,1,0,-1,1168,10
"189",4,9,0.759838507574671,1,2,1,1,1,1151,11
"190",4,10,0.793200872340217,1,3,0,0,1,1040,12
"191",4,11,0.816198827897965,1,1,1,1,1,1007,13
"192",4,12,0.724005671227566,1,2,1,1,1,800,14
"193",4,13,0.747223171058823,1,1,0,1,-1,767,13
"194",4,14,0.779882621192135,-1,2,0,1,-1,719,12
"195",4,15,0.85685824129301,1,3,1,0,-1,863,11
"196",4,16,0.865215298636523,1,2,1,1,1,624,12
"197",4,17,0.824721759015047,1,1,1,1,1,591,13
"198",4,18,0.875872010682635,1,3,0,0,1,1569,14
"199",4,19,0.70689052997447,-1,1,1,1,1,991,15
"200",4,20,0.662309537779849,1,3,0,0,1,833,16
"201",4,21,0.684107452888567,1,2,0,1,-1,591,15
"202",4,22,0.782254463553989,1,3,1,0,-1,1999,14
"203",4,23,0.701120351722519,1,1,1,1,1,640,15
"204",4,24,0.594249101004619,-1,3,0,0,1,720,16
"205",4,25,0.608425344410044,1,2,0,1,-1,576,15
"206",4,26,0.688995442167469,1,1,1,1,1,800,16
"207",4,27,0.691714806308031,-1,2,0,1,-1,1312,15
"208",4,28,0.614565981811696,-1,1,1,1,1,896,16
"209",4,29,0.540036477950674,-1,3,1,0,-1,703,15
"210",4,30,0.54181166805867,1,1,1,1,1,784,16
"211",4,31,0.521950916472287,-1,2,0,1,-1,624,15
"212",4,32,0.591684625569474,1,3,0,0,1,1007,16
"213",4,33,0.500724238039369,-1,2,0,1,-1,959,15
"214",4,34,0.490649527282943,-1,3,0,1,-1,1200,14
"215",4,35,0.512024522630006,-1,1,1,1,1,848,15
"216",4,36,0.426459551587647,1,3,0,0,1,944,16
"217",4,37,0.352622888999872,-1,2,1,1,1,943,17
"218",4,38,0.397792987634145,1,1,1,1,1,911,18
"219",4,39,0.264664676527189,-1,2,1,0,-1,1856,17
"220",4,40,0.227024450404719,-1,1,0,1,-1,864,16
"221",4,41,0.239581388173814,-1,3,0,0,1,1263,17
"222",4,42,0.203900370876131,-1,1,0,1,-1,1024,16
"223",4,43,0.167265840283677,-1,2,0,1,-1,912,15
"224",4,44,0.241359912998988,-1,1,1,1,1,3279,16
"225",4,45,0.363617042758676,1,3,1,0,-1,704,15
"226",4,46,0.48257778107357,1,2,0,1,-1,639,14
"227",4,47,0.526751434637387,-1,3,0,0,1,655,15
"228",4,48,0.474193048964588,-1,2,0,1,-1,721,14
"229",4,49,0.328910092201967,1,1,1,1,1,800,15
"230",4,50,0.400238178895493,1,2,1,1,1,880,16
"231",4,51,0.458726452966108,1,3,0,0,1,1024,17
"232",4,52,0.42525897469431,-1,1,0,1,-1,1169,16
"233",4,53,0.386656225589328,-1,3,0,0,1,1151,17
"234",4,54,0.259541164138347,-1,1,1,1,1,928,18
"235",4,55,0.247649860675457,-1,2,1,1,1,928,19
"236",4,56,0.191314777480091,1,1,1,1,1,993,20
"237",4,57,0.28711750717086,1,3,0,0,1,687,21
"238",4,58,0.186422080193425,-1,2,1,1,1,768,22
"239",4,59,0.107033044752161,-1,3,0,0,1,832,23
"240",4,60,0.137208643877291,-1,2,1,1,1,672,24
"241",5,1,0.439897297089919,-1,1,1,0,-1,2118,6
"242",5,2,0.443934033417362,-1,2,1,0,-1,1499,5
"243",5,3,0.501623538489373,-1,3,0,0,1,1322,6
"244",5,4,0.411597953139656,-1,2,1,1,1,1184,7
"245",5,5,0.346702983179775,-1,1,1,1,1,1009,8
"246",5,6,0.36906189328096,-1,3,0,0,1,889,9
"247",5,7,0.465748323930837,-1,1,1,1,1,1293,10
"248",5,8,0.402103871154495,-1,3,1,0,-1,949,9
"249",5,9,0.35794693122283,-1,2,0,0,1,1039,10
"250",5,10,0.277748622311134,-1,3,1,1,1,1323,11
"251",5,11,0.353436749196307,-1,1,1,1,1,684,12
"252",5,12,0.298608609999411,-1,2,0,0,1,732,13
"253",5,13,0.227290619624234,-1,1,0,1,-1,838,12
"254",5,14,0.22050786572177,1,2,0,1,-1,1263,11
"255",5,15,0.159826621807284,-1,3,0,1,-1,1210,10
"256",5,16,0.308568773607733,1,2,1,0,-1,1495,9
"257",5,17,0.303976005863379,-1,1,0,1,-1,1058,8
"258",5,18,0.301346015657862,-1,3,0,1,-1,575,7
"259",5,19,0.210934971808995,1,1,1,0,-1,447,6
"260",5,20,0.196034599873814,-1,3,0,1,-1,673,5
"261",5,21,0.171755717503064,-1,2,1,1,1,624,6
"262",5,22,0.255635838045081,1,3,0,1,-1,1148,5
"263",5,23,0.450024273770829,1,1,0,1,-1,1180,4
"264",5,24,0.546310032689338,1,3,0,0,1,1009,5
"265",5,25,0.450595374501353,1,2,0,1,-1,1090,4
"266",5,26,0.587740123535235,1,1,1,0,-1,1216,3
"267",5,27,0.518953062363637,1,2,0,1,-1,2678,2
"268",5,28,0.59108990412331,1,1,1,1,1,707,3
"269",5,29,0.562773851215024,-1,3,1,0,-1,1342,2
"270",5,30,0.533971684290575,-1,1,1,1,1,1064,3
"271",5,31,0.689755476144831,-1,2,1,1,1,515,4
"272",5,32,0.715524466815893,1,3,0,1,-1,425,3
"273",5,33,0.792355477476656,1,2,1,1,1,347,4
"274",5,34,0.838825319922355,1,3,0,1,-1,370,3
"275",5,35,0.888914051054564,1,1,0,1,-1,409,2
"276",5,36,0.735520551976763,-1,3,0,1,-1,547,1
"277",5,37,0.798491500312856,1,2,0,0,1,607,2
"278",5,38,0.655363934496037,1,1,1,1,1,1136,3
"279",5,39,0.572056113816484,-1,2,1,0,-1,598,2
"280",5,40,0.694089308608729,-1,1,1,1,1,747,3
"281",5,41,0.66707921180352,-1,3,0,1,-1,699,2
"282",5,42,0.712924590797054,1,1,1,1,1,685,3
"283",5,43,0.724573805875259,1,2,1,0,-1,806,2
"284",5,44,0.632269059205456,1,1,1,1,1,611,3
"285",5,45,0.642226703830441,1,3,0,0,1,1249,4
"286",5,46,0.608378694418907,1,2,0,1,-1,496,3
"287",5,47,0.690923895092045,1,3,0,1,-1,941,2
"288",5,48,0.549807220081835,1,2,1,0,-1,1105,1
"289",5,49,0.471245635657447,-1,1,1,1,1,72,2
"290",5,50,0.419108928891221,-1,2,0,1,-1,841,1
"291",5,51,0.314265968608403,-1,3,0,0,1,357,2
"292",5,52,0.313445611046647,1,1,1,1,1,725,3
"293",5,53,0.359561554690562,-1,3,1,1,1,793,4
"294",5,54,0.403680071496446,-1,1,1,0,-1,1235,3
"295",5,55,0.453073399619291,-1,2,0,1,-1,933,2
"296",5,56,0.453169471080531,-1,1,0,1,-1,573,1
"297",5,57,0.490684411368199,-1,3,0,1,-1,416,0
"298",5,58,0.563545924385558,-1,2,0,0,1,375,1
"299",5,59,0.406584134032384,-1,3,1,0,-1,433,0
"300",5,60,0.446934438628769,1,2,1,0,-1,398,-1
"301",6,1,0.595970076601952,1,2,1,1,1,1014,7
"302",6,2,0.65068404341769,1,3,1,1,1,784,8
"303",6,3,0.48623746802232,-1,1,1,1,1,752,9
"304",6,4,0.489231496452256,-1,3,0,1,-1,880,8
"305",6,5,0.493457877975395,-1,2,1,1,1,704,9
"306",6,6,0.391833605248035,-1,1,0,1,-1,1089,8
"307",6,7,0.383570584220876,-1,2,1,1,1,864,9
"308",6,8,0.469725074441364,1,1,1,0,-1,1072,8
"309",6,9,0.382014010826655,-1,3,0,0,1,783,9
"310",6,10,0.370533696448558,-1,1,1,1,1,658,10
"311",6,11,0.392311647955872,-1,2,1,1,1,608,11
"312",6,12,0.410365525748738,-1,3,0,0,1,544,12
"313",6,13,0.236034768781181,1,2,0,1,-1,448,11
"314",6,14,0.321933030126352,-1,3,0,0,1,896,12
"315",6,15,0.278602543487177,-1,1,0,1,-1,816,11
"316",6,16,0.423090141964138,-1,3,0,0,1,544,12
"317",6,17,0.279137089854752,-1,2,1,1,1,545,13
"318",6,18,0.17057851230872,-1,1,1,1,1,704,14
"319",6,19,0.184267971063125,-1,2,1,1,1,496,15
"320",6,20,0.171458450433401,-1,1,0,1,-1,672,14
"321",6,21,0.113626169470895,-1,1,0,1,-1,527,13
"322",6,22,0.117716569682098,1,2,0,1,-1,464,12
"323",6,23,0.277989167017376,-1,3,0,0,1,496,13
"324",6,24,0.252776867520722,1,2,1,1,1,624,14
"325",6,25,0.18629225874838,1,1,1,1,1,527,15
"326",6,26,0.184878612051209,-1,3,0,0,1,529,16
"327",6,27,0.420787317715042,1,1,0,1,-1,432,15
"328",6,28,0.52673585837792,-1,3,0,1,-1,4864,14
"329",6,29,0.604305702808647,1,2,0,1,-1,864,13
"330",6,30,0.699518903085256,-1,3,1,0,-1,896,12
"331",6,31,0.627331664269801,-1,1,1,1,1,1009,13
"332",6,32,0.656373766575046,-1,2,0,1,-1,512,12
"333",6,33,0.633563094309704,1,1,1,1,1,720,13
"334",6,34,0.711823728501153,1,2,1,1,1,592,14
"335",6,35,0.708216779661164,1,3,0,0,1,464,15
"336",6,36,0.551045549055855,1,2,0,1,-1,336,14
"337",6,37,0.484630692345566,-1,1,1,1,1,480,15
"338",6,38,0.491669529532663,1,3,0,0,1,448,16
"339",6,39,0.537292126624839,1,1,1,1,1,560,17
"340",6,40,0.589011970624411,1,3,0,0,1,464,18
"341",6,41,0.579337774274185,1,3,1,1,1,367,19
"342",6,42,0.502341505556606,-1,1,1,1,1,623,20
"343",6,43,0.499079858562876,1,2,1,1,1,592,21
"344",6,44,0.51450138407155,1,1,1,1,1,753,22
"345",6,45,0.442151739707512,-1,3,1,0,-1,464,21
"346",6,46,0.440498674646095,-1,2,1,1,1,448,22
"347",6,47,0.474818474086129,1,3,0,0,1,607,23
"348",6,48,0.518197797019191,-1,2,0,1,-1,496,22
"349",6,49,0.540383145431366,-1,1,1,1,1,496,23
"350",6,50,0.609298166136052,1,2,0,1,-1,896,22
"351",6,51,0.641663746323639,1,3,0,0,1,688,23
"352",6,52,0.520426786187962,-1,1,1,1,1,640,24
"353",6,53,0.467915764093898,1,3,0,0,1,543,25
"354",6,54,0.529681900122363,-1,1,1,1,1,657,26
"355",6,55,0.507117978023092,-1,2,0,1,-1,624,25
"356",6,56,0.488600584440148,1,1,1,1,1,656,26
"357",6,57,0.460374409296683,1,3,0,0,1,528,27
"358",6,58,0.491600900922382,1,2,0,1,-1,480,26
"359",6,59,0.500686963300519,1,3,1,0,-1,848,25
"360",6,60,0.616781437066043,-1,2,0,1,-1,448,24
"361",8,1,0.508783653611317,1,2,1,1,1,2280,-1
"362",8,2,0.653921368398117,-1,3,0,0,1,888,0
"363",8,3,0.657418130552469,1,1,1,1,1,944,1
"364",8,4,0.585936411580992,-1,3,0,0,1,830,2
"365",8,5,0.530595416325888,-1,2,0,1,-1,704,1
"366",8,6,0.527138484541363,1,1,1,1,1,582,2
"367",8,7,0.610228689908208,1,2,1,1,1,867,3
"368",8,8,0.609414742916319,1,1,0,1,-1,807,2
"369",8,9,0.661806886232118,-1,3,0,0,1,775,3
"370",8,10,0.608174404322849,1,1,1,1,1,696,4
"371",8,11,0.551329412898013,1,2,1,1,1,620,5
"372",8,12,0.511253685792006,1,3,1,0,-1,647,4
"373",8,13,0.559568353566106,1,2,1,1,1,1052,5
"374",8,14,0.617520425167426,-1,3,1,0,-1,832,4
"375",8,15,0.555595175725873,-1,1,1,1,1,837,5
"376",8,16,0.470198096617889,1,3,0,1,-1,1329,4
"377",8,17,0.349821832034591,-1,2,1,1,1,821,5
"378",8,18,0.463128083656607,1,1,1,1,1,771,6
"379",8,19,0.4208942114618,1,2,1,1,1,567,7
"380",8,20,0.348664415429094,1,1,1,1,1,734,8
"381",8,21,0.344498950533234,-1,3,0,0,1,656,9
"382",8,22,0.228887059458166,1,1,1,1,1,709,10
"383",8,23,0.177357574102281,-1,2,1,1,1,803,11
"384",8,24,0.103463198646949,-1,1,1,1,1,748,12
"385",8,25,0.184976684089644,-1,3,0,0,1,429,13
"386",8,26,0.135891504749679,-1,2,0,1,-1,706,12
"387",8,27,0.142166440788749,-1,3,0,0,1,698,13
"388",8,28,0.185027137488308,-1,2,0,1,-1,713,12
"389",8,29,0.167054751571138,-1,1,1,1,1,768,13
"390",8,30,0.106430008567569,-1,2,0,0,1,777,14
"391",8,31,0.166688549180573,-1,3,1,1,1,1082,15
"392",8,32,0.277621037054384,1,1,1,1,1,635,16
"393",8,33,0.26338803211459,-1,3,0,0,1,1468,17
"394",8,34,0.265543908844561,1,1,1,1,1,1018,18
"395",8,35,0.355377483781817,1,2,0,0,1,1130,19
"396",8,36,0.341640487752785,-1,1,0,1,-1,842,18
"397",8,37,0.249408924778028,-1,3,1,0,-1,1650,17
"398",8,38,0.279571226837495,-1,2,0,1,-1,823,16
"399",8,39,0.43624888580991,-1,3,0,1,-1,1060,15
"400",8,40,0.389347010087441,-1,2,0,1,-1,1099,14
"401",8,41,0.528410209184368,-1,1,0,1,-1,632,13
"402",8,42,0.510333420935688,-1,2,1,0,-1,391,12
"403",8,43,0.536040678199545,-1,3,0,0,1,479,13
"404",8,44,0.596963040877196,-1,2,0,0,1,754,14
"405",8,45,0.617851126989927,1,1,1,0,-1,545,13
"406",8,46,0.561323307217323,1,3,0,0,1,1233,14
"407",8,47,0.573499739591293,1,1,0,1,-1,708,13
"408",8,48,0.583143136866824,1,3,0,1,-1,551,12
"409",8,49,0.722366988317568,-1,2,0,1,-1,322,11
"410",8,50,0.758431768448863,1,3,0,0,1,480,12
"411",8,51,0.752605804962845,1,1,1,1,1,543,13
"412",8,52,0.691419363846732,-1,2,1,0,-1,629,12
"413",8,53,0.786882789629985,1,1,1,1,1,1014,13
"414",8,54,0.855361013546112,1,2,0,1,-1,1071,12
"415",8,55,0.885482709140995,1,3,0,0,1,819,13
"416",8,56,0.847674216502901,1,2,1,1,1,989,14
"417",8,57,0.869912455912226,1,1,0,1,-1,601,13
"418",8,58,0.877900843630166,1,3,1,0,-1,777,12
"419",8,59,0.834585062408967,1,1,1,1,1,638,13
"420",8,60,0.823612361860777,1,3,0,0,1,1048,14
"421",9,1,0.477221508324146,1,3,1,1,1,1873,7
"422",9,2,0.501788005994383,-1,1,0,0,1,1530,8
"423",9,3,0.606188406005554,1,2,0,1,-1,1223,7
"424",9,4,0.665288608299467,-1,1,1,0,-1,2136,6
"425",9,5,0.659882273134158,1,3,0,1,-1,1216,5
"426",9,6,0.516373649275808,-1,2,1,1,1,1230,6
"427",9,7,0.620577305277684,1,3,1,1,1,1720,7
"428",9,8,0.642231004312395,-1,2,1,1,1,1183,8
"429",9,9,0.705923654272178,1,1,1,0,-1,2029,7
"430",9,10,0.642133473190673,1,2,1,1,1,1021,8
"431",9,11,0.649362826893312,-1,3,1,0,-1,1915,7
"432",9,12,0.687412232244058,1,1,1,0,-1,1716,6
"433",9,13,0.718564223479742,1,3,0,1,-1,828,5
"434",9,14,0.713717761551078,1,1,1,1,1,937,6
"435",9,15,0.632303053399251,1,2,0,1,-1,763,5
"436",9,16,0.621631918428286,1,1,0,1,-1,616,4
"437",9,17,0.627436319621555,1,3,0,1,-1,555,3
"438",9,18,0.57789342071231,-1,2,0,1,-1,706,2
"439",9,19,0.610426275508061,-1,3,0,0,1,858,3
"440",9,20,0.608947224017388,1,2,1,0,-1,837,2
"441",9,21,0.655983673922737,1,1,0,0,1,559,3
"442",9,22,0.592285320478332,-1,2,1,0,-1,412,2
"443",9,23,0.614530520673415,-1,3,0,1,-1,426,1
"444",9,24,0.674226692838738,-1,2,1,1,1,599,2
"445",9,25,0.716819831893289,1,1,1,1,1,748,3
"446",9,26,0.71254134552987,1,3,0,1,-1,1162,2
"447",9,27,0.704211082422356,-1,1,1,0,-1,587,1
"448",9,28,0.713532123650302,-1,3,0,0,1,386,2
"449",9,29,0.808680599643145,1,2,0,1,-1,561,1
"450",9,30,0.660034833889978,1,3,0,1,-1,1104,0
"451",9,31,0.555543493869893,-1,1,1,0,-1,478,-1
"452",9,32,0.476191383213604,-1,2,0,0,1,1321,0
"453",9,33,0.471868744794517,1,1,1,1,1,682,1
"454",9,34,0.52713963887269,1,2,1,1,1,1378,2
"455",9,35,0.49515073560665,1,3,1,0,-1,1273,1
"456",9,36,0.455625415813953,1,2,1,0,-1,968,0
"457",9,37,0.4691679822154,1,1,0,1,-1,620,-1
"458",9,38,0.538609184424469,-1,3,1,1,1,530,0
"459",9,39,0.581324716824358,-1,1,0,1,-1,458,-1
"460",9,40,0.501648182549537,-1,3,0,1,-1,373,-2
"461",9,41,0.366102401275038,-1,2,0,0,1,769,-1
"462",9,42,0.352100520515507,-1,3,0,0,1,687,0
"463",9,43,0.275035574849388,1,1,1,0,-1,265,-1
"464",9,44,0.257037626164181,-1,3,0,1,-1,557,-2
"465",9,45,0.249030620317133,1,2,1,1,1,612,-1
"466",9,46,0.215618108558056,1,1,1,1,1,378,0
"467",9,47,0.231936882559079,-1,2,0,1,-1,751,-1
"468",9,48,0.162683504267442,-1,1,1,1,1,627,0
"469",9,49,0.131958319567874,-1,3,0,1,-1,1078,-1
"470",9,50,0.236231728222325,-1,1,1,1,1,803,0
"471",9,51,0.213765454896365,1,2,0,0,1,492,1
"472",9,52,0.264671994231729,-1,3,0,0,1,778,2
"473",9,53,0.220959002443365,-1,2,0,0,1,756,3
"474",9,54,0.356530174189829,1,3,0,0,1,625,4
"475",9,55,0.334790268158666,-1,1,1,1,1,672,5
"476",9,56,0.204115882649962,-1,3,0,0,1,706,6
"477",9,57,0.221323839906871,-1,2,0,0,1,600,7
"478",9,58,0.17227750314387,-1,1,1,1,1,752,8
"479",9,59,0.134566984140275,-1,2,1,0,-1,630,7
"480",9,60,0.100184369958244,-1,1,1,0,-1,523,6
"481",10,1,0.532746219774708,-1,2,1,1,1,2617,-1
"482",10,2,0.431543653235746,-1,3,1,1,1,1567,0
"483",10,3,0.532107336557968,-1,1,1,0,-1,1340,-1
"484",10,4,0.539389851031804,1,3,1,1,1,1185,0
"485",10,5,0.550588129388381,-1,2,0,1,-1,1137,-1
"486",10,6,0.562859511457856,1,1,1,1,1,375,0
"487",10,7,0.607880374762913,1,2,1,1,1,576,1
"488",10,8,0.647936236879286,-1,1,1,1,1,613,2
"489",10,9,0.620588975313576,1,3,0,1,-1,988,1
"490",10,10,0.747598269837757,1,1,0,1,-1,414,0
"491",10,11,0.813250569774725,-1,2,1,1,1,337,1
"492",10,12,0.85318363094413,1,3,0,1,-1,429,0
"493",10,13,0.830505656679477,1,2,1,1,1,819,1
"494",10,14,0.664295039681584,1,3,1,1,1,900,2
"495",10,15,0.793898489408087,-1,1,1,1,1,478,3
"496",10,16,0.829139303622552,-1,3,0,1,-1,368,2
"497",10,17,0.799778557610904,1,2,0,1,-1,1214,1
"498",10,18,0.664637045492477,-1,1,1,1,1,594,2
"499",10,19,0.505735128543168,-1,2,1,1,1,424,3
"500",10,20,0.52008968329239,1,1,1,1,1,344,4
"501",10,21,0.609458259778071,1,1,1,1,1,305,5
"502",10,22,0.675501855609088,1,2,0,1,-1,557,4
"503",10,23,0.552139937006062,1,3,0,1,-1,1134,3
"504",10,24,0.548514387922621,-1,2,0,0,1,1664,4
"505",10,25,0.654397796491206,-1,1,1,1,1,1136,5
"506",10,26,0.622789305779411,-1,3,0,1,-1,848,4
"507",10,27,0.635217833769357,1,1,1,1,1,1069,5
"508",10,28,0.547918739340901,1,3,0,1,-1,959,4
"509",10,29,0.425496372199534,-1,2,0,0,1,768,5
"510",10,30,0.363785651524878,-1,3,0,1,-1,767,4
"511",10,31,0.337969479654847,-1,1,1,1,1,957,5
"512",10,32,0.473867524232481,-1,2,1,0,-1,1061,4
"513",10,33,0.492920966550577,1,1,0,1,-1,689,3
"514",10,34,0.496278085439353,-1,2,0,0,1,499,4
"515",10,35,0.586985748700299,1,3,0,1,-1,808,3
"516",10,36,0.489180431869011,-1,2,1,0,-1,1089,2
"517",10,37,0.55284349084748,1,1,0,1,-1,527,1
"518",10,38,0.665589914975619,1,3,0,1,-1,484,0
"519",10,39,0.652129102318762,-1,1,0,1,-1,301,-1
"520",10,40,0.544599758627724,-1,3,0,0,1,223,0
"521",10,41,0.548502783929428,1,3,0,0,1,701,1
"522",10,42,0.464355410021466,-1,1,1,0,-1,334,0
"523",10,43,0.427834428229055,1,2,1,0,-1,367,-1
"524",10,44,0.330004553166739,1,1,1,1,1,753,0
"525",10,45,0.325356953122439,-1,3,0,1,-1,377,-1
"526",10,46,0.34505667953767,-1,2,1,1,1,398,0
"527",10,47,0.29172985518351,-1,3,1,1,1,357,1
"528",10,48,0.26517461420239,1,2,0,1,-1,280,0
"529",10,49,0.304692772810784,1,1,0,1,-1,307,-1
"530",10,50,0.225063126979857,-1,2,0,1,-1,332,-2
"531",10,51,0.230708268103346,-1,3,0,1,-1,291,-3
"532",10,52,0.255411637485816,-1,1,1,1,1,408,-2
"533",10,53,0.284574492883628,-1,3,0,1,-1,922,-3
"534",10,54,0.336414879787787,-1,1,1,1,1,576,-2
"535",10,55,0.381188440422215,-1,2,0,1,-1,783,-3
"536",10,56,0.35422180781757,1,1,1,0,-1,399,-4
"537",10,57,0.417926080722536,1,3,0,0,1,296,-3
"538",10,58,0.364447042559542,-1,2,0,0,1,307,-2
"539",10,59,0.411109976848314,1,3,1,0,-1,343,-3
"540",10,60,0.391747771177972,-1,2,1,0,-1,312,-4
"541",11,1,0.579035883428826,-1,1,0,1,-1,1133,14
"542",11,2,0.560549727867297,-1,2,1,1,1,1206,15
"543",11,3,0.725864614354104,1,3,1,0,-1,993,14
"544",11,4,0.637118821240613,-1,2,0,1,-1,1236,13
"545",11,5,0.636681361309466,-1,1,1,0,-1,1110,12
"546",11,6,0.644066878499333,1,3,1,0,-1,1186,11
"547",11,7,0.682752642275025,1,1,1,1,1,1230,12
"548",11,8,0.807315915061556,1,3,0,1,-1,1244,11
"549",11,9,0.884708403753124,1,2,0,0,1,1434,12
"550",11,10,0.889521314697386,1,3,0,0,1,985,13
"551",11,11,0.872405472306953,-1,1,0,0,1,937,14
"552",11,12,0.809080668190676,-1,2,1,0,-1,1937,13
"553",11,13,0.719260121075283,-1,1,1,1,1,1352,14
"554",11,14,0.686471857319218,1,2,0,1,-1,1615,13
"555",11,15,0.69877854978933,-1,3,0,0,1,1368,14
"556",11,16,0.653450412237509,-1,2,1,0,-1,1125,13
"557",11,17,0.603938106859436,1,1,1,0,-1,1345,12
"558",11,18,0.486819748371212,1,3,1,1,1,1462,13
"559",11,19,0.421048747065441,-1,1,1,1,1,1493,14
"560",11,20,0.325732554920267,1,3,0,1,-1,827,13
"561",11,21,0.305563419007631,-1,3,0,0,1,1164,14
"562",11,22,0.159901554488535,-1,1,1,0,-1,910,13
"563",11,23,0.308963732710061,1,2,1,0,-1,1392,12
"564",11,24,0.388352642296337,1,1,0,1,-1,1198,11
"565",11,25,0.297294904664977,1,3,0,1,-1,492,10
"566",11,26,0.421861887164981,-1,2,0,1,-1,1026,9
"567",11,27,0.383481712516826,1,3,1,0,-1,318,8
"568",11,28,0.338585537782543,-1,2,0,1,-1,713,7
"569",11,29,0.365630142944383,-1,1,1,0,-1,467,6
"570",11,30,0.374400512343192,1,2,0,0,1,221,7
"571",11,31,0.346565064035653,-1,3,0,1,-1,812,6
"572",11,32,0.440395209391302,1,1,1,1,1,1461,7
"573",11,33,0.383694669424105,-1,3,0,0,1,825,8
"574",11,34,0.468661760556178,-1,1,0,1,-1,808,7
"575",11,35,0.480831320523826,1,2,1,0,-1,533,6
"576",11,36,0.57061383379773,-1,1,0,1,-1,1054,5
"577",11,37,0.500407350865404,1,3,0,1,-1,1116,4
"578",11,38,0.600722267050591,1,2,1,0,-1,1241,3
"579",11,39,0.598384804588893,-1,3,1,1,1,1805,4
"580",11,40,0.620909708494766,1,2,1,0,-1,731,3
"581",11,41,0.555084134932746,1,2,0,1,-1,840,2
"582",11,42,0.590816787245609,1,3,0,0,1,327,3
"583",11,43,0.657612580682866,1,1,1,1,1,1028,4
"584",11,44,0.666598739176682,-1,3,0,0,1,596,5
"585",11,45,0.695995228995417,1,2,0,0,1,1283,6
"586",11,46,0.737996199594367,1,1,1,1,1,585,7
"587",11,47,0.69044797408586,1,2,1,0,-1,578,6
"588",11,48,0.587509731209795,1,1,1,1,1,625,7
"589",11,49,0.476454757720092,-1,3,0,0,1,517,8
"590",11,50,0.523887190731713,-1,1,1,1,1,694,9
"591",11,51,0.485398347095517,-1,2,0,0,1,704,10
"592",11,52,0.516319518825454,1,3,0,0,1,844,11
"593",11,53,0.461553995312175,1,2,0,0,1,794,12
"594",11,54,0.449317951255966,1,3,0,0,1,874,13
"595",11,55,0.409916561226433,-1,1,1,1,1,542,14
"596",11,56,0.267455996599342,-1,3,0,0,1,568,15
"597",11,57,0.25948395215933,1,2,1,0,-1,1043,14
"598",11,58,0.355792082784375,-1,1,1,1,1,655,15
"599",11,59,0.279644646784567,-1,2,1,0,-1,688,14
"600",11,60,0.267239425533492,1,1,1,0,-1,766,13
"601",12,1,0.440008528763428,1,3,0,1,-1,844,-11
"602",12,2,0.442660826989655,-1,1,1,0,-1,728,-12
"603",12,3,0.422747824071262,-1,2,1,0,-1,928,-13
"604",12,4,0.306119170385313,-1,1,0,1,-1,808,-14
"605",12,5,0.226239557727818,1,3,0,0,1,992,-13
"606",12,6,0.206043071869593,-1,2,1,0,-1,744,-14
"607",12,7,0.34450494545123,-1,3,0,0,1,960,-13
"608",12,8,0.312099818600208,-1,2,1,1,1,344,-12
"609",12,9,0.23888664304876,-1,1,1,1,1,1047,-11
"610",12,10,0.20390818918779,1,2,0,1,-1,905,-12
"611",12,11,0.137074909518096,-1,3,0,1,-1,327,-13
"612",12,12,0.117490241733396,-1,1,1,0,-1,600,-14
"613",12,13,0.131919683666877,-1,3,0,0,1,1008,-13
"614",12,14,0.3041978143124,-1,1,1,1,1,728,-12
"615",12,15,0.399228234234906,1,2,1,1,1,656,-11
"616",12,16,0.406896437245264,-1,1,1,1,1,608,-10
"617",12,17,0.519910600955453,1,3,0,0,1,599,-9
"618",12,18,0.500648363758426,-1,2,1,1,1,520,-8
"619",12,19,0.488890583128003,1,3,0,0,1,645,-7
"620",12,20,0.451117632151272,-1,2,0,1,-1,571,-8
"621",12,21,0.438871261840193,-1,1,1,1,1,600,-7
"622",12,22,0.47061569110684,1,2,0,1,-1,824,-8
"623",12,23,0.358342388556168,-1,3,1,0,-1,720,-9
"624",12,24,0.382444346828819,-1,2,0,1,-1,600,-10
"625",12,25,0.470054454384697,-1,1,1,1,1,872,-9
"626",12,26,0.356957364735177,-1,3,1,0,-1,736,-10
"627",12,27,0.328253739768902,-1,1,0,1,-1,687,-11
"628",12,28,0.354181002479529,-1,3,0,0,1,760,-10
"629",12,29,0.393753683660475,1,2,1,1,1,824,-9
"630",12,30,0.518569528282626,-1,3,0,0,1,600,-8
"631",12,31,0.555975153134485,-1,1,0,1,-1,744,-9
"632",12,32,0.605630532237207,-1,2,1,1,1,608,-8
"633",12,33,0.620494276118584,1,1,1,1,1,631,-7
"634",12,34,0.597990033655866,1,2,0,1,-1,576,-8
"635",12,35,0.503076250345874,1,3,0,0,1,624,-7
"636",12,36,0.481046642540749,1,2,0,1,-1,569,-8
"637",12,37,0.465474128929374,-1,1,1,1,1,496,-7
"638",12,38,0.579403965635267,1,3,0,0,1,624,-6
"639",12,39,0.630842260522073,-1,1,1,1,1,584,-5
"640",12,40,0.651192524775108,1,3,1,0,-1,1400,-6
"641",12,41,0.672160589667973,1,2,0,1,-1,352,-7
"642",12,42,0.673179079231904,1,3,1,0,-1,704,-8
"643",12,43,0.706670029120478,1,1,1,1,1,761,-7
"644",12,44,0.598241735053215,-1,3,0,0,1,688,-6
"645",12,45,0.663143819362761,1,2,1,1,1,808,-5
"646",12,46,0.767381416088682,1,1,1,1,1,471,-4
"647",12,47,0.739100580532486,-1,2,0,1,-1,624,-5
"648",12,48,0.843217084283064,1,1,0,1,-1,808,-6
"649",12,49,0.783087410605431,1,3,0,0,1,888,-5
"650",12,50,0.694622860312869,-1,1,1,1,1,656,-4
"651",12,51,0.65059347506336,1,2,0,1,-1,496,-5
"652",12,52,0.659713299607603,1,3,1,0,-1,839,-6
"653",12,53,0.545781578027695,1,2,1,1,1,744,-5
"654",12,54,0.574169395672836,1,3,0,0,1,680,-4
"655",12,55,0.535088266844741,1,1,1,1,1,640,-3
"656",12,56,0.557589770665446,1,3,0,0,1,639,-2
"657",12,57,0.641630448505835,1,2,0,1,-1,760,-3
"658",12,58,0.571810474245016,1,1,1,0,-1,2632,-4
"659",12,59,0.594834990408112,-1,2,1,1,1,4480,-3
"660",12,60,0.530373073039562,1,1,0,1,-1,1408,-4
"661",15,1,0.582865634839982,-1,1,1,0,-1,2486,5
"662",15,2,0.435207985727261,1,2,0,0,1,2023,6
"663",15,3,0.468062368879818,-1,3,0,1,-1,1009,5
"664",15,4,0.433558755774797,1,2,1,0,-1,1544,4
"665",15,5,0.451631303725932,-1,1,1,0,-1,1095,3
"666",15,6,0.475713123325362,-1,3,1,0,-1,817,2
"667",15,7,0.388438462566572,-1,1,1,1,1,838,3
"668",15,8,0.321556526735584,-1,3,0,0,1,889,4
"669",15,9,0.30011325617376,-1,2,0,0,1,2008,5
"670",15,10,0.419720146918302,1,3,0,1,-1,1241,4
"671",15,11,0.288501367684094,1,1,1,1,1,800,5
"672",15,12,0.238978353131394,-1,2,0,0,1,2399,6
"673",15,13,0.213247256428304,-1,1,1,1,1,1265,7
"674",15,14,0.369797409822068,1,2,0,0,1,2087,8
"675",15,15,0.305556019847819,-1,3,0,0,1,768,9
"676",15,16,0.372457651658136,-1,2,1,1,1,1048,10
"677",15,17,0.272727495266287,-1,1,0,1,-1,824,9
"678",15,18,0.309776127585188,-1,3,1,0,-1,1488,8
"679",15,19,0.254326519212546,-1,1,1,1,1,752,9
"680",15,20,0.243862904215665,-1,3,1,0,-1,1992,8
"681",15,21,0.167557811148554,-1,3,0,1,-1,696,7
"682",15,22,0.129440940903309,1,1,1,1,1,721,8
"683",15,23,0.143761696924389,-1,2,1,0,-1,1295,7
"684",15,24,0.177953615183673,-1,1,1,1,1,793,8
"685",15,25,0.180159245393093,-1,3,0,0,1,2591,9
"686",15,26,0.2292217418587,-1,2,1,1,1,1072,10
"687",15,27,0.199066673104613,-1,3,1,0,-1,1104,9
"688",15,28,0.311447649612502,-1,2,1,0,-1,888,8
"689",15,29,0.318316808276686,1,1,1,1,1,824,9
"690",15,30,0.395183899477254,1,2,1,0,-1,920,8
"691",15,31,0.428707197758082,1,3,0,0,1,967,9
"692",15,32,0.537913893913657,-1,1,1,1,1,552,10
"693",15,33,0.581638906764038,1,3,1,0,-1,959,9
"694",15,34,0.637615339840175,1,1,1,1,1,514,10
"695",15,35,0.663254024673148,1,2,0,1,-1,558,9
"696",15,36,0.580119709554382,1,1,0,1,-1,664,8
"697",15,37,0.67265274238837,1,3,0,1,-1,1056,7
"698",15,38,0.644967942820567,-1,2,1,1,1,264,8
"699",15,39,0.708448494574102,1,3,0,0,1,321,9
"700",15,40,0.771937287249149,1,2,1,1,1,263,10
"701",15,41,0.800279582345385,1,2,0,0,1,800,11
"702",15,42,0.748760010934823,1,3,0,0,1,1024,12
"703",15,43,0.701988648579819,1,1,0,1,-1,649,11
"704",15,44,0.777903139104417,1,3,0,1,-1,503,10
"705",15,45,0.758950705687782,1,2,0,0,1,632,11
"706",15,46,0.805651531316185,1,1,1,1,1,624,12
"707",15,47,0.831602504694687,1,2,0,0,1,465,13
"708",15,48,0.818687570083933,1,1,0,1,-1,847,12
"709",15,49,0.730395288448266,-1,3,0,1,-1,344,11
"710",15,50,0.658364632603723,-1,1,0,1,-1,1848,10
"711",15,51,0.565948920565372,1,2,1,0,-1,1847,9
"712",15,52,0.59475224389739,1,3,0,1,-1,441,8
"713",15,53,0.596390966799552,1,2,0,0,1,671,9
"714",15,54,0.595361716904717,1,3,0,0,1,911,10
"715",15,55,0.593338165539261,-1,1,1,0,-1,552,9
"716",15,56,0.67795912919827,1,3,0,0,1,736,10
"717",15,57,0.727502109933892,-1,2,0,0,1,2097,11
"718",15,58,0.752140091614629,1,1,1,1,1,488,12
"719",15,59,0.778475860499694,1,2,1,0,-1,303,11
"720",15,60,0.739922487851243,-1,1,1,0,-1,568,10
"721",16,1,0.495449774479494,1,1,1,1,1,677,7
"722",16,2,0.526981414572971,-1,2,0,1,-1,545,6
"723",16,3,0.556932023106222,-1,3,0,1,-1,621,5
"724",16,4,0.49789404267445,1,2,0,1,-1,801,4
"725",16,5,0.44148902843381,-1,1,1,1,1,334,5
"726",16,6,0.426459701757376,1,3,0,1,-1,303,4
"727",16,7,0.353781254045064,-1,1,1,1,1,975,5
"728",16,8,0.373983558856853,-1,3,0,0,1,662,6
"729",16,9,0.309420142452154,-1,2,1,0,-1,846,5
"730",16,10,0.327747774960391,1,3,0,0,1,722,6
"731",16,11,0.423372448062771,-1,1,1,1,1,542,7
"732",16,12,0.393273586112516,1,2,1,0,-1,585,6
"733",16,13,0.393057128441542,1,1,1,1,1,645,7
"734",16,14,0.414694690497045,-1,2,1,0,-1,535,6
"735",16,15,0.483321090124549,1,3,0,0,1,473,7
"736",16,16,0.463831640680169,-1,2,0,0,1,618,8
"737",16,17,0.444445248635148,-1,1,1,1,1,482,9
"738",16,18,0.446543596392974,-1,3,1,0,-1,457,8
"739",16,19,0.382583647969256,-1,1,0,1,-1,559,7
"740",16,20,0.417480501513679,1,3,0,0,1,578,8
"741",16,21,0.530833659543776,-1,3,0,0,1,585,9
"742",16,22,0.535990761107485,-1,1,1,1,1,523,10
"743",16,23,0.494092499611422,-1,2,0,0,1,522,11
"744",16,24,0.405335622000054,-1,1,1,1,1,559,12
"745",16,25,0.468068746242371,-1,3,1,0,-1,475,11
"746",16,26,0.402444670752269,-1,2,1,0,-1,616,10
"747",16,27,0.436457071486354,1,3,0,0,1,717,11
"748",16,28,0.342617195561932,-1,2,0,1,-1,456,10
"749",16,29,0.398462578078167,1,1,0,1,-1,761,9
"750",16,30,0.517619394193629,1,2,1,0,-1,1091,8
"751",16,31,0.682595637057682,1,3,0,0,1,641,9
"752",16,32,0.631387341535238,-1,1,0,1,-1,620,8
"753",16,33,0.639102770872533,1,3,0,0,1,602,9
"754",16,34,0.576617960391562,1,1,1,1,1,737,10
"755",16,35,0.680929085157677,1,2,1,0,-1,540,9
"756",16,36,0.607675285332719,1,1,0,1,-1,563,8
"757",16,37,0.689904820043374,1,3,1,0,-1,683,7
"758",16,38,0.683316070994482,-1,2,0,0,1,678,8
"759",16,39,0.762247916775659,1,3,0,0,1,550,9
"760",16,40,0.76496529382305,1,2,0,0,1,655,10
"761",16,41,0.777494520461779,1,2,0,0,1,624,11
"762",16,42,0.794888534940419,1,3,0,0,1,617,12
"763",16,43,0.866538821244253,1,1,0,1,-1,737,11
"764",16,44,0.872718672915532,1,3,0,0,1,638,12
"765",16,45,0.785248516019878,1,2,1,0,-1,623,11
"766",16,46,0.727091858349568,-1,1,1,1,1,511,12
"767",16,47,0.612700118251048,1,2,0,0,1,629,13
"768",16,48,0.59225974822986,-1,1,1,1,1,679,14
"769",16,49,0.702641194908842,-1,3,1,0,-1,571,13
"770",16,50,0.518388788618141,1,1,1,1,1,599,14
"771",16,51,0.532545423061101,-1,2,1,0,-1,516,13
"772",16,52,0.501672869361679,-1,3,0,0,1,1369,14
"773",16,53,0.40137311508252,1,2,1,0,-1,781,13
"774",16,54,0.323754642886293,-1,3,0,0,1,508,14
"775",16,55,0.323571978837607,1,1,1,1,1,511,15
"776",16,56,0.192319320979566,-1,3,1,0,-1,665,14
"777",16,57,0.169143854922349,-1,2,0,0,1,579,15
"778",16,58,0.125832221998862,-1,1,1,1,1,548,16
"779",16,59,0.301366991609893,-1,2,1,0,-1,655,15
"780",16,60,0.23232519378329,-1,1,1,1,1,650,16
"781",17,1,0.406408040923998,-1,3,0,1,-1,2475,-3
"782",17,2,0.448237368303879,-1,1,1,0,-1,3662,-4
"783",17,3,0.431301613478994,1,2,1,1,1,4624,-3
"784",17,4,0.527906028512031,-1,1,1,0,-1,1831,-4
"785",17,5,0.51768839122001,-1,3,1,1,1,2220,-3
"786",17,6,0.464835439104176,-1,2,1,0,-1,863,-4
"787",17,7,0.5541458568932,-1,3,0,1,-1,1084,-5
"788",17,8,0.431168839839877,-1,2,0,1,-1,1671,-6
"789",17,9,0.456383440223875,-1,1,1,1,1,1464,-5
"790",17,10,0.523270092466543,1,2,0,1,-1,1078,-6
"791",17,11,0.543461906557151,1,3,1,1,1,752,-5
"792",17,12,0.623630359400294,-1,1,1,1,1,718,-4
"793",17,13,0.522381418299794,-1,3,0,1,-1,699,-5
"794",17,14,0.523550663124768,1,1,0,1,-1,475,-6
"795",17,15,0.415524917160323,1,2,0,1,-1,1304,-7
"796",17,16,0.32231933802271,-1,1,0,1,-1,1016,-8
"797",17,17,0.281763314675539,-1,3,0,0,1,630,-7
"798",17,18,0.343119204821761,1,2,0,1,-1,657,-8
"799",17,19,0.391085611081125,1,3,0,0,1,323,-7
"800",17,20,0.304857736749593,-1,2,0,0,1,270,-6
"801",17,21,0.210486546462799,-1,2,0,0,1,551,-5
"802",17,22,0.305974305364623,-1,3,1,0,-1,334,-6
"803",17,23,0.317238533962119,-1,1,1,1,1,300,-5
"804",17,24,0.252728397037452,-1,3,0,1,-1,275,-6
"805",17,25,0.241416003683743,-1,2,1,0,-1,573,-7
"806",17,26,0.172172359900122,-1,1,1,1,1,249,-6
"807",17,27,0.269260336395125,-1,2,0,1,-1,297,-7
"808",17,28,0.364128349455169,1,1,1,1,1,672,-6
"809",17,29,0.467232172052431,1,3,1,1,1,352,-5
"810",17,30,0.506652106167069,1,1,1,0,-1,462,-6
"811",17,31,0.532019570038654,1,2,0,0,1,263,-5
"812",17,32,0.551380126819161,-1,3,0,1,-1,324,-6
"813",17,33,0.649597288382697,1,2,0,0,1,1283,-5
"814",17,34,0.523859838266207,1,3,1,0,-1,272,-6
"815",17,35,0.436257900282553,1,1,1,0,-1,1197,-7
"816",17,36,0.409070408016528,-1,3,0,1,-1,307,-8
"817",17,37,0.429110003641887,1,2,1,1,1,328,-7
"818",17,38,0.438567532206091,1,1,1,1,1,348,-6
"819",17,39,0.5165668165685,1,2,1,1,1,336,-5
"820",17,40,0.489710096019104,-1,1,1,0,-1,373,-6
"821",17,41,0.408344946098674,1,1,1,1,1,347,-5
"822",17,42,0.441353086906048,-1,2,0,1,-1,376,-6
"823",17,43,0.505092688336466,1,3,0,1,-1,317,-7
"824",17,44,0.525047519921839,-1,2,1,1,1,641,-6
"825",17,45,0.593536328219695,-1,1,1,1,1,365,-5
"826",17,46,0.576440523479271,-1,3,0,1,-1,316,-6
"827",17,47,0.665964504426383,-1,1,0,0,1,351,-5
"828",17,48,0.768795386208238,1,3,0,0,1,401,-4
"829",17,49,0.781320149406312,-1,2,1,1,1,349,-3
"830",17,50,0.771096165297046,1,3,0,1,-1,355,-4
"831",17,51,0.675772020282825,-1,1,1,0,-1,231,-5
"832",17,52,0.653374043446411,1,2,1,1,1,294,-4
"833",17,53,0.718649653701371,1,1,0,1,-1,2188,-5
"834",17,54,0.772067116302,1,2,1,1,1,350,-4
"835",17,55,0.817707524159845,1,3,0,1,-1,351,-5
"836",17,56,0.779218786047112,1,2,1,1,1,1311,-4
"837",17,57,0.741440258322305,1,1,0,0,1,2132,-3
"838",17,58,0.781743847913682,1,3,0,0,1,768,-2
"839",17,59,0.796598571879695,1,1,1,0,-1,380,-3
"840",17,60,0.778792404812092,-1,3,0,1,-1,485,-4
"841",18,1,0.550808748463169,1,3,0,1,-1,2038,-6
"842",18,2,0.5458300555382,1,1,1,1,1,7180,-5
"843",18,3,0.525935179685589,1,2,0,1,-1,1287,-6
"844",18,4,0.549234549444165,1,1,0,1,-1,2127,-7
"845",18,5,0.418704181901793,1,3,0,0,1,1495,-6
"846",18,6,0.384590961027594,1,2,0,1,-1,1196,-7
"847",18,7,0.488658163764067,1,3,0,0,1,1276,-6
"848",18,8,0.374978031748608,-1,2,1,0,-1,897,-7
"849",18,9,0.404752532285348,-1,1,1,1,1,1238,-6
"850",18,10,0.416791537286357,1,2,0,0,1,3417,-5
"851",18,11,0.326366946990297,-1,3,1,0,-1,1000,-6
"852",18,12,0.267207686815157,1,1,1,1,1,1169,-5
"853",18,13,0.221966044383287,1,3,0,0,1,1214,-4
"854",18,14,0.4311864258467,1,1,1,1,1,3162,-3
"855",18,15,0.544272738708695,-1,2,0,0,1,1282,-2
"856",18,16,0.531357186205582,-1,1,1,1,1,3554,-1
"857",18,17,0.489365275753253,-1,3,1,0,-1,1092,-2
"858",18,18,0.467492663023988,1,2,0,0,1,1117,-1
"859",18,19,0.549301293016302,1,3,0,0,1,908,0
"860",18,20,0.598434407914136,-1,2,1,0,-1,2547,-1
"861",18,21,0.670119139151006,1,2,1,0,-1,1527,-2
"862",18,22,0.768428296823035,-1,3,0,0,1,1050,-1
"863",18,23,0.830161676718414,1,1,0,1,-1,1155,-2
"864",18,24,0.802642766939208,-1,3,0,1,-1,3588,-3
"865",18,25,0.881260971183317,1,2,1,0,-1,2719,-4
"866",18,26,0.808378145817019,1,1,1,1,1,6693,-3
"867",18,27,0.845221256316439,1,2,0,1,-1,1797,-4
"868",18,28,0.79604439401465,1,1,1,1,1,1077,-3
"869",18,29,0.607733666346135,1,3,0,0,1,2588,-2
"870",18,30,0.646671576423068,1,1,1,1,1,1480,-1
"871",18,31,0.635035269870911,-1,2,1,1,1,1494,0
"872",18,32,0.629037963542045,1,3,0,0,1,1366,1
"873",18,33,0.483607715515486,1,2,0,1,-1,3875,0
"874",18,34,0.408731784938706,-1,3,1,0,-1,1520,-1
"875",18,35,0.47857378426839,1,1,0,1,-1,1894,-2
"876",18,36,0.503177363660603,-1,3,0,0,1,6499,-1
"877",18,37,0.476887760408034,-1,2,0,1,-1,1346,-2
"878",18,38,0.409416661489418,-1,1,0,1,-1,1319,-3
"879",18,39,0.309237838915279,-1,2,1,0,-1,900,-4
"880",18,40,0.34901667988516,-1,1,1,1,1,895,-3
"881",18,41,0.33121886494052,-1,1,1,1,1,1377,-2
"882",18,42,0.231454709377153,-1,2,0,1,-1,1304,-3
"883",18,43,0.276468606216476,1,3,1,0,-1,878,-4
"884",18,44,0.337351112397872,-1,2,1,1,1,1192,-3
"885",18,45,0.383876607798492,-1,1,1,1,1,45928,-2
"886",18,46,0.409084291505492,NA,3,NA,NA,NA,NA,-2
"887",18,47,0.504278567347488,NA,1,NA,NA,NA,NA,-2
"888",18,48,0.500674313181521,-1,3,1,1,1,2540,-1
"889",18,49,0.380141658570654,-1,2,1,1,1,1887,0
"890",18,50,0.234585764642221,-1,3,0,1,-1,3196,-1
"891",18,51,0.179326872486066,-1,1,1,1,1,888,0
"892",18,52,0.115962524435651,-1,2,0,1,-1,1879,-1
"893",18,53,0.256220439524012,-1,1,0,1,-1,737,-2
"894",18,54,0.417612145435115,1,2,1,0,-1,894,-3
"895",18,55,0.48697356501037,1,3,0,0,1,1128,-2
"896",18,56,0.595728795910843,1,2,1,0,-1,1115,-3
"897",18,57,0.618519614190968,NA,1,NA,NA,NA,NA,-3
"898",18,58,0.630951883054343,NA,3,NA,NA,NA,NA,-3
"899",18,59,0.74895290139179,NA,1,NA,NA,NA,NA,-3
"900",18,60,0.764770562132465,1,3,0,1,-1,2267,-4
"901",19,1,0.487032300326973,-1,2,1,0,-1,1251,3
"902",19,2,0.469321084097243,-1,3,0,1,-1,1590,2
"903",19,3,0.427631465428662,1,1,1,0,-1,752,1
"904",19,4,0.404253702725831,1,3,1,1,1,746,2
"905",19,5,0.336359498725522,-1,2,0,1,-1,885,1
"906",19,6,0.401062651577986,1,1,1,0,-1,902,0
"907",19,7,0.336280427935929,1,2,0,1,-1,1225,-1
"908",19,8,0.340820158312116,-1,1,1,1,1,1036,0
"909",19,9,0.418808304436952,1,3,0,0,1,939,1
"910",19,10,0.388707257465311,-1,1,1,1,1,1245,2
"911",19,11,0.287274322546604,-1,2,1,0,-1,854,1
"912",19,12,0.330880502932044,-1,3,0,1,-1,1247,0
"913",19,13,0.473268063268925,1,2,1,0,-1,680,-1
"914",19,14,0.391787616816015,-1,3,0,0,1,69,0
"915",19,15,0.336031983792593,-1,1,0,1,-1,918,-1
"916",19,16,0.340858849228772,1,3,0,0,1,835,0
"917",19,17,0.303131190159518,-1,2,0,1,-1,1260,-1
"918",19,18,0.364663336593915,-1,1,1,1,1,940,0
"919",19,19,0.349087572053745,-1,2,1,0,-1,1061,-1
"920",19,20,0.410647635897013,-1,1,1,1,1,1364,0
"921",19,21,0.356812143488071,1,3,1,0,-1,864,-1
"922",19,22,0.32535762886939,1,1,1,1,1,935,0
"923",19,23,0.310186294695714,-1,2,0,0,1,902,1
"924",19,24,0.254415604965372,-1,1,1,1,1,1083,2
"925",19,25,0.240646099063817,1,3,0,1,-1,1418,1
"926",19,26,0.267862349883992,1,2,1,0,-1,1411,0
"927",19,27,0.221799176219268,-1,3,0,0,1,1123,1
"928",19,28,0.158923048138925,1,2,1,1,1,747,2
"929",19,29,0.302910367541198,-1,1,1,1,1,752,3
"930",19,30,0.51090171485708,1,2,0,1,-1,1060,2
"931",19,31,0.540741996742668,-1,3,0,0,1,852,3
"932",19,32,0.586884810991779,-1,1,1,1,1,1721,4
"933",19,33,0.729976851553724,1,3,0,0,1,973,5
"934",19,34,0.833268332239521,1,1,0,0,1,1296,6
"935",19,35,0.80347102413325,-1,2,1,1,1,939,7
"936",19,36,0.845698706562495,1,1,0,0,1,900,8
"937",19,37,0.802387063734144,1,3,0,0,1,1350,9
"938",19,38,0.881165718136973,1,2,0,1,-1,705,8
"939",19,39,0.880585997308309,-1,3,1,0,-1,1005,7
"940",19,40,0.840302900865668,1,2,0,1,-1,1021,6
"941",19,41,0.650972050042518,-1,1,0,0,1,948,7
"942",19,42,0.626554600139935,-1,2,0,1,-1,905,6
"943",19,43,0.605818132666382,1,3,0,0,1,815,7
"944",19,44,0.604368999506514,1,2,0,0,1,1156,8
"945",19,45,0.606087837574699,-1,1,1,0,-1,1057,7
"946",19,46,0.588220155160673,1,3,0,0,1,731,8
"947",19,47,0.57811295029104,1,1,0,0,1,841,9
"948",19,48,0.511948706119881,1,3,0,0,1,788,10
"949",19,49,0.593840101883858,1,2,0,0,1,1406,11
"950",19,50,0.493282142397437,1,3,0,0,1,841,12
"951",19,51,0.415206153357777,-1,1,1,0,-1,797,11
"952",19,52,0.300748711181009,-1,2,1,1,1,1062,12
"953",19,53,0.477617589102688,-1,1,1,0,-1,754,11
"954",19,54,0.484610862088908,1,2,1,1,1,910,12
"955",19,55,0.412942506947872,1,3,0,0,1,1701,13
"956",19,56,0.461953537390375,-1,2,1,1,1,1037,14
"957",19,57,0.47210979885637,-1,1,1,1,1,1232,15
"958",19,58,0.509650020969018,-1,3,1,0,-1,846,14
"959",19,59,0.552005605411401,1,1,1,1,1,1071,15
"960",19,60,0.567674862076153,1,3,1,0,-1,849,14
"961",20,1,0.538936130935326,1,3,1,1,1,2233,1
"962",20,2,0.584911166284973,-1,1,0,0,1,1077,2
"963",20,3,0.592275703982751,1,2,0,0,1,793,3
"964",20,4,0.504025809092339,1,1,0,1,-1,550,2
"965",20,5,0.604472002201953,-1,3,0,1,-1,912,1
"966",20,6,0.453113052072219,-1,2,0,0,1,329,2
"967",20,7,0.324792509985814,1,3,0,0,1,279,3
"968",20,8,0.291557988809387,-1,2,1,0,-1,304,2
"969",20,9,0.315370277180869,-1,1,1,1,1,288,3
"970",20,10,0.28162395313821,-1,2,1,1,1,306,4
"971",20,11,0.255220407386333,-1,3,0,0,1,110,5
"972",20,12,0.31353268066814,1,1,1,1,1,95,6
"973",20,13,0.279417479994676,-1,3,0,0,1,369,7
"974",20,14,0.308963725602624,-1,1,1,0,-1,79,6
"975",20,15,0.256140470176938,-1,2,1,1,1,306,7
"976",20,16,0.132099508574913,-1,1,1,1,1,78,8
"977",20,17,0.154375879847694,1,3,0,0,1,280,9
"978",20,18,0.173244224888677,-1,2,1,1,1,329,10
"979",20,19,0.128811331989209,-1,3,0,1,-1,54,9
"980",20,20,0.351648118296017,-1,2,1,1,1,457,10
"981",20,21,0.249757251282622,1,1,0,0,1,367,11
"982",20,22,0.323480836455147,-1,2,1,1,1,734,12
"983",20,23,0.288151389790353,-1,3,1,0,-1,378,11
"984",20,24,0.254180386130455,-1,2,0,0,1,512,12
"985",20,25,0.20547852098691,-1,1,0,1,-1,318,11
"986",20,26,0.356628546782204,1,3,1,1,1,111,12
"987",20,27,0.347857393685773,-1,1,1,1,1,80,13
"988",20,28,0.207887249401885,-1,3,1,0,-1,128,12
"989",20,29,0.248453283314127,-1,2,0,0,1,152,13
"990",20,30,0.399178997023473,1,3,0,1,-1,289,12
"991",20,31,0.512860072730217,-1,1,0,1,-1,312,11
"992",20,32,0.463497856589649,-1,2,0,0,1,320,12
"993",20,33,0.495275936466865,-1,1,1,0,-1,159,11
"994",20,34,0.486591288206044,1,2,0,1,-1,266,10
"995",20,35,0.522858703596832,-1,3,0,1,-1,408,9
"996",20,36,0.532522705789226,1,2,0,0,1,1000,10
"997",20,37,0.567851118641334,-1,1,1,0,-1,238,9
"998",20,38,0.646062964080858,1,3,0,0,1,712,10
"999",20,39,0.593307359278528,1,1,1,0,-1,336,9
"1000",20,40,0.591701995128389,-1,3,0,1,-1,224,8
"1001",20,41,0.490209358236071,1,2,1,0,-1,248,7
"1002",20,42,0.537061445657866,-1,3,0,1,-1,79,6
"1003",20,43,0.460368792037534,1,1,1,1,1,401,7
"1004",20,44,0.592162966307705,-1,3,1,0,-1,559,6
"1005",20,45,0.603135960533839,1,2,1,1,1,367,7
"1006",20,46,0.661096268977799,1,1,1,1,1,689,8
"1007",20,47,0.735787360205721,-1,2,0,0,1,920,9
"1008",20,48,0.730181152304693,1,1,1,1,1,911,10
"1009",20,49,0.748046057105878,1,3,0,0,1,1569,11
"1010",20,50,0.610432403443295,1,1,1,1,1,742,12
"1011",20,51,0.683224448257408,1,2,0,0,1,825,13
"1012",20,52,0.649122377183388,-1,3,0,0,1,976,14
"1013",20,53,0.739138311819504,1,2,1,0,-1,1126,13
"1014",20,54,0.692856069065981,1,3,0,0,1,1584,14
"1015",20,55,0.749025084564418,-1,1,1,1,1,657,15
"1016",20,56,0.81058669296903,1,3,0,0,1,928,16
"1017",20,57,0.814240652329855,1,2,0,1,-1,1166,15
"1018",20,58,0.760069785530109,1,1,1,1,1,559,16
"1019",20,59,0.815103336197583,1,2,1,0,-1,792,15
"1020",20,60,0.77707083471678,-1,1,1,1,1,711,16
"1021",22,1,0.498248322261497,1,2,1,0,-1,1562,9
"1022",22,2,0.442040029008459,1,3,1,0,-1,1227,8
"1023",22,3,0.524404428839894,-1,1,1,0,-1,657,7
"1024",22,4,0.550589131498885,1,3,0,1,-1,650,6
"1025",22,5,0.623905551438106,1,2,1,0,-1,347,5
"1026",22,6,0.61105614632949,-1,1,0,1,-1,1210,4
"1027",22,7,0.478274979448401,1,2,1,1,1,1523,5
"1028",22,8,0.522727709287938,1,1,1,0,-1,395,4
"1029",22,9,0.598957572571828,-1,3,0,0,1,766,5
"1030",22,10,0.495442848698772,1,1,1,1,1,1002,6
"1031",22,11,0.465611634133848,-1,2,0,1,-1,763,5
"1032",22,12,0.425863042268147,1,3,1,0,-1,876,4
"1033",22,13,0.431448501235886,-1,2,1,1,1,1872,5
"1034",22,14,0.426236087480592,-1,3,0,0,1,1067,6
"1035",22,15,0.491186557463853,1,1,1,0,-1,1160,5
"1036",22,16,0.412041783964554,-1,3,1,0,-1,895,4
"1037",22,17,0.400085113825645,-1,2,1,1,1,498,5
"1038",22,18,0.388172132566588,-1,1,1,1,1,839,6
"1039",22,19,0.404572039556912,1,2,0,1,-1,873,5
"1040",22,20,0.411646914714459,1,1,1,1,1,831,6
"1041",22,21,0.419415344277548,-1,1,0,1,-1,720,5
"1042",22,22,0.359452540330032,-1,2,0,1,-1,1247,4
"1043",22,23,0.323051841467071,-1,3,0,0,1,768,5
"1044",22,24,0.286091797183823,-1,2,0,0,1,676,6
"1045",22,25,0.132803594712146,-1,1,1,1,1,710,7
"1046",22,26,0.207870446244891,-1,3,0,0,1,488,8
"1047",22,27,0.128708732389749,1,1,1,1,1,1196,9
"1048",22,28,0.208273624738574,-1,3,0,0,1,712,10
"1049",22,29,0.236636385515125,1,2,0,0,1,610,11
"1050",22,30,0.288634529197677,-1,3,0,0,1,728,12
"1051",22,31,0.352019384866508,1,1,0,1,-1,610,11
"1052",22,32,0.301943572828944,-1,2,0,1,-1,645,10
"1053",22,33,0.383285722051334,1,1,1,1,1,780,11
"1054",22,34,0.414380053038186,-1,2,1,0,-1,1173,10
"1055",22,35,0.474658794478785,1,3,0,0,1,708,11
"1056",22,36,0.392146690590539,-1,2,0,0,1,2000,12
"1057",22,37,0.573418203958149,1,1,0,1,-1,494,11
"1058",22,38,0.522329336519105,1,3,0,0,1,686,12
"1059",22,39,0.612355795092658,1,1,1,1,1,802,13
"1060",22,40,0.576187716322456,-1,3,1,0,-1,693,12
"1061",22,41,0.532808437273631,-1,3,0,0,1,882,13
"1062",22,42,0.47787560048579,-1,1,0,1,-1,713,12
"1063",22,43,0.50145693550182,1,2,1,1,1,694,13
"1064",22,44,0.585556567518577,1,1,1,1,1,1753,14
"1065",22,45,0.481584504067945,1,3,0,0,1,537,15
"1066",22,46,0.520452006519417,1,2,1,0,-1,886,14
"1067",22,47,0.597052037270408,1,3,1,1,1,462,15
"1068",22,48,0.60667653083809,-1,2,0,1,-1,732,14
"1069",22,49,0.679861702664142,-1,1,1,1,1,357,15
"1070",22,50,0.637480260557882,-1,2,1,0,-1,749,14
"1071",22,51,0.669176727151528,-1,3,0,0,1,682,15
"1072",22,52,0.703277308403493,-1,1,1,1,1,776,16
"1073",22,53,0.704681728348901,1,3,0,0,1,607,17
"1074",22,54,0.797760102363528,1,1,1,1,1,644,18
"1075",22,55,0.685028510437465,1,2,0,1,-1,306,17
"1076",22,56,0.641820450471684,1,1,1,1,1,552,18
"1077",22,57,0.694766298732356,1,3,0,0,1,365,19
"1078",22,58,0.784068906681637,-1,2,0,0,1,423,20
"1079",22,59,0.770446877813487,-1,3,0,0,1,564,21
"1080",22,60,0.849447053071562,1,2,1,0,-1,705,20
"1081",23,1,0.456188268979108,-1,3,0,0,1,1295,9
"1082",23,2,0.639282953324033,-1,1,1,0,-1,405,8
"1083",23,3,0.516278534508292,1,2,1,0,-1,1337,7
"1084",23,4,0.500713474978016,1,1,1,0,-1,802,6
"1085",23,5,0.544078096687709,1,3,0,1,-1,825,5
"1086",23,6,0.545020044346416,-1,2,1,1,1,373,6
"1087",23,7,0.541513678712191,1,3,0,1,-1,351,5
"1088",23,8,0.542981631249215,1,2,0,0,1,378,6
"1089",23,9,0.630984715139622,-1,1,0,0,1,513,7
"1090",23,10,0.559257171523169,-1,2,1,0,-1,370,6
"1091",23,11,0.678157664518755,-1,3,1,1,1,155,7
"1092",23,12,0.710626489233291,1,1,1,1,1,464,8
"1093",23,13,0.756480914806224,1,3,1,1,1,425,9
"1094",23,14,0.770064867655708,1,1,0,0,1,367,10
"1095",23,15,0.57136434079564,1,2,1,0,-1,110,9
"1096",23,16,0.615964532724034,-1,1,1,0,-1,318,8
"1097",23,17,0.68225547300935,1,3,1,1,1,281,9
"1098",23,18,0.624283698541049,1,2,1,1,1,326,10
"1099",23,19,0.659016664266067,1,3,0,0,1,325,11
"1100",23,20,0.649436567352422,1,2,0,1,-1,368,10
"1101",23,21,0.577605232937063,1,2,1,0,-1,343,9
"1102",23,22,0.623019761545998,1,3,1,0,-1,319,8
"1103",23,23,0.696138366798697,1,1,1,0,-1,335,7
"1104",23,24,0.485952775364043,1,3,0,1,-1,344,6
"1105",23,25,0.423115529195259,-1,2,1,1,1,285,7
"1106",23,26,0.572553838692331,1,1,1,1,1,480,8
"1107",23,27,0.548975679581193,1,2,0,0,1,447,9
"1108",23,28,0.55188491998618,1,1,1,0,-1,505,8
"1109",23,29,0.471752194849288,1,3,0,0,1,453,9
"1110",23,30,0.457218151030369,-1,1,1,1,1,468,10
"1111",23,31,0.511396802541294,-1,2,0,1,-1,828,9
"1112",23,32,0.499532077399346,-1,3,0,0,1,397,10
"1113",23,33,0.538400888375496,1,2,1,1,1,862,11
"1114",23,34,0.506766356599202,1,3,0,0,1,893,12
"1115",23,35,0.474588872159517,1,1,1,0,-1,1297,11
"1116",23,36,0.447589283560626,1,3,0,1,-1,748,10
"1117",23,37,0.335728280708477,-1,2,1,0,-1,1350,9
"1118",23,38,0.420019083601297,-1,1,1,0,-1,752,8
"1119",23,39,0.343154728258233,1,2,0,1,-1,1112,7
"1120",23,40,0.28091937969094,-1,1,1,1,1,705,8
"1121",23,41,0.218607086538176,-1,1,1,1,1,513,9
"1122",23,42,0.22674607259204,1,2,0,1,-1,1121,8
"1123",23,43,0.12484332349712,1,3,0,0,1,597,9
"1124",23,44,0.152094992085387,-1,2,0,1,-1,488,8
"1125",23,45,0.28070723210993,-1,1,1,1,1,750,9
"1126",23,46,0.196682601052163,-1,3,0,0,1,462,10
"1127",23,47,0.272385549326766,-1,1,1,1,1,935,11
"1128",23,48,0.221389887369006,-1,3,1,0,-1,568,10
"1129",23,49,0.23333252082285,-1,2,0,1,-1,515,9
"1130",23,50,0.141278586000805,NA,3,NA,NA,NA,NA,9
"1131",23,51,0.318241421093624,-1,1,0,1,-1,4780,8
"1132",23,52,0.355709191536053,-1,2,1,1,1,547,9
"1133",23,53,0.303756160031624,1,1,1,0,-1,429,8
"1134",23,54,0.361085070358318,-1,2,0,1,-1,675,7
"1135",23,55,0.471054032447937,-1,3,0,1,-1,497,6
"1136",23,56,0.511377229602793,-1,2,0,0,1,621,7
"1137",23,57,0.500457939298639,-1,1,0,0,1,531,8
"1138",23,58,0.36987619639479,-1,3,0,0,1,380,9
"1139",23,59,0.293704861901601,-1,1,0,0,1,318,10
"1140",23,60,0.36053542658921,-1,3,0,0,1,343,11
"1141",24,1,0.417726489994675,-1,1,0,1,-1,2081,2
"1142",24,2,0.31376426320918,-1,2,1,0,-1,1305,1
"1143",24,3,0.298283763981105,1,3,0,1,-1,758,0
"1144",24,4,0.317023290545037,1,2,1,1,1,856,1
"1145",24,5,0.516138362317586,1,1,1,1,1,533,2
"1146",24,6,0.569112980867187,-1,3,1,1,1,562,3
"1147",24,7,0.451356912011747,-1,1,1,0,-1,1228,2
"1148",24,8,0.467079280691241,1,3,1,1,1,1206,3
"1149",24,9,0.455912375899167,1,2,0,0,1,1346,4
"1150",24,10,0.452353561112779,-1,3,1,1,1,680,5
"1151",24,11,0.419884589309407,1,1,1,1,1,1503,6
"1152",24,12,0.484656366370927,1,2,0,0,1,1222,7
"1153",24,13,0.51497191538143,1,1,1,1,1,1014,8
"1154",24,14,0.474044184771924,-1,2,1,0,-1,917,7
"1155",24,15,0.446356241111258,1,3,0,1,-1,1470,6
"1156",24,16,0.354508481158946,-1,2,1,0,-1,1094,5
"1157",24,17,0.236313240264512,-1,1,1,1,1,492,6
"1158",24,18,0.194575175148329,1,3,0,1,-1,825,5
"1159",24,19,0.137987597340772,-1,1,0,1,-1,795,4
"1160",24,20,0.278709270609181,1,3,0,1,-1,768,3
"1161",24,21,0.335218353933605,-1,2,0,0,1,1414,4
"1162",24,22,0.309564747210917,1,3,0,1,-1,793,3
"1163",24,23,0.407485936904396,-1,1,1,1,1,2168,4
"1164",24,24,0.530249450086141,1,3,0,0,1,669,5
"1165",24,25,0.493375400370615,1,2,1,0,-1,1544,4
"1166",24,26,0.434930619437435,-1,1,1,1,1,1190,5
"1167",24,27,0.577071895247782,-1,2,0,0,1,1704,6
"1168",24,28,0.607648107861472,1,1,0,0,1,3248,7
"1169",24,29,0.64986826527416,1,3,0,0,1,1501,8
"1170",24,30,0.625847302531382,-1,1,0,1,-1,1108,7
"1171",24,31,0.575072718273311,1,2,1,0,-1,1966,6
"1172",24,32,0.562624586496191,-1,3,0,1,-1,2066,5
"1173",24,33,0.616425527682686,-1,2,1,0,-1,419,4
"1174",24,34,0.571656033407708,1,3,1,0,-1,315,3
"1175",24,35,0.520772815841934,1,1,1,1,1,2051,4
"1176",24,36,0.649701993439598,1,3,0,0,1,985,5
"1177",24,37,0.629641693642801,1,2,0,0,1,3764,6
"1178",24,38,0.677286141178381,1,1,1,1,1,890,7
"1179",24,39,0.527991171115442,-1,2,1,1,1,1392,8
"1180",24,40,0.586795094720411,1,1,1,1,1,2085,9
"1181",24,41,0.610910857826495,1,3,0,0,1,1083,10
"1182",24,42,0.683694479327771,1,1,0,1,-1,1246,9
"1183",24,43,0.672522691528543,1,2,0,0,1,1238,10
"1184",24,44,0.737036295062303,1,1,1,1,1,780,11
"1185",24,45,0.889865394094283,1,3,0,0,1,747,12
"1186",24,46,0.839241131960713,-1,2,0,0,1,1175,13
"1187",24,47,0.71908181691087,1,3,0,0,1,1025,14
"1188",24,48,0.798616801753797,1,2,1,0,-1,3703,13
"1189",24,49,0.762536075750246,1,1,1,1,1,981,14
"1190",24,50,0.629864475467608,-1,2,0,0,1,876,15
"1191",24,51,0.482195585571527,1,3,1,0,-1,1722,14
"1192",24,52,0.582389398870318,1,1,1,1,1,991,15
"1193",24,53,0.520317320372317,-1,3,0,0,1,1016,16
"1194",24,54,0.535040476584641,-1,1,1,1,1,1487,17
"1195",24,55,0.421592640474216,-1,2,0,0,1,811,18
"1196",24,56,0.372562118580141,-1,1,1,1,1,814,19
"1197",24,57,0.344635969939776,-1,3,0,0,1,739,20
"1198",24,58,0.428444829078337,1,2,1,0,-1,2327,19
"1199",24,59,0.523456388550543,-1,3,0,0,1,1015,20
"1200",24,60,0.461992236161918,-1,2,0,0,1,1691,21
"1201",25,1,0.418310815514997,-1,2,1,1,1,1622,7
"1202",25,2,0.40750157395444,1,3,1,1,1,1210,8
"1203",25,3,0.435661107346792,-1,1,1,1,1,1003,9
"1204",25,4,0.480527059378376,-1,3,0,1,-1,1076,8
"1205",25,5,0.49148951076748,-1,2,0,1,-1,1212,7
"1206",25,6,0.556501298422411,-1,1,0,1,-1,1714,6
"1207",25,7,0.590365634167372,1,2,1,1,1,1226,7
"1208",25,8,0.509611221391687,1,1,1,1,1,969,8
"1209",25,9,0.418878861648841,1,3,0,1,-1,1909,7
"1210",25,10,0.342319472005881,-1,1,1,1,1,985,8
"1211",25,11,0.331495103816459,-1,2,0,1,-1,959,7
"1212",25,12,0.30376362331286,-1,3,1,0,-1,1056,6
"1213",25,13,0.175437449770999,-1,2,0,1,-1,2148,5
"1214",25,14,0.289256709914115,-1,3,1,1,1,877,6
"1215",25,15,0.408116480110719,-1,1,1,1,1,849,7
"1216",25,16,0.253264520210985,-1,3,0,1,-1,214,6
"1217",25,17,0.317756374442239,-1,2,1,1,1,996,7
"1218",25,18,0.380873714125261,-1,1,1,1,1,987,8
"1219",25,19,0.313198435879002,-1,2,1,1,1,737,9
"1220",25,20,0.380209425604269,-1,1,1,1,1,990,10
"1221",25,21,0.446464060855775,-1,1,0,1,-1,931,9
"1222",25,22,0.549243450268323,-1,2,1,1,1,886,10
"1223",25,23,0.475122731331164,-1,3,1,0,-1,840,9
"1224",25,24,0.479097942478563,-1,2,1,1,1,816,10
"1225",25,25,0.387280582535516,-1,1,1,1,1,885,11
"1226",25,26,0.359166898815666,-1,3,0,0,1,1000,12
"1227",25,27,0.365157331536209,-1,1,1,1,1,906,13
"1228",25,28,0.281425190731243,1,3,0,0,1,938,14
"1229",25,29,0.377769320733209,-1,2,0,1,-1,861,13
"1230",25,30,0.266888935451278,-1,3,0,0,1,902,14
"1231",25,31,0.30000142638941,-1,1,0,1,-1,831,13
"1232",25,32,0.238494258150374,-1,2,0,1,-1,868,12
"1233",25,33,0.360311087538574,1,1,0,1,-1,916,11
"1234",25,34,0.372270929969727,-1,2,0,1,-1,1052,10
"1235",25,35,0.36796182474408,-1,3,0,0,1,885,11
"1236",25,36,0.449482424005465,-1,2,1,0,-1,901,10
"1237",25,37,0.484039728803222,-1,1,1,0,-1,682,9
"1238",25,38,0.494576240898049,1,3,0,0,1,784,10
"1239",25,39,0.590715249414527,1,1,1,1,1,603,11
"1240",25,40,0.580147207532377,1,3,0,0,1,846,12
"1241",25,41,0.580221248689024,-1,3,0,0,1,805,13
"1242",25,42,0.574638984563658,-1,1,0,1,-1,799,12
"1243",25,43,0.62825786454206,1,2,0,1,-1,858,11
"1244",25,44,0.7455745783163,-1,1,1,1,1,1026,12
"1245",25,45,0.763829532619193,-1,3,0,0,1,806,13
"1246",25,46,0.865001884734149,1,2,1,1,1,770,14
"1247",25,47,0.798275025365798,1,3,0,0,1,848,15
"1248",25,48,0.875251142111322,1,2,1,1,1,858,16
"1249",25,49,0.782768916017853,-1,1,1,1,1,923,17
"1250",25,50,0.883027846623957,1,2,1,1,1,859,18
"1251",25,51,0.85166964712709,1,3,1,0,-1,817,17
"1252",25,52,0.830323239386312,1,1,1,1,1,670,18
"1253",25,53,0.868431042713209,1,3,0,0,1,852,19
"1254",25,54,0.863514561393227,1,1,1,1,1,769,20
"1255",25,55,0.861922029871326,1,2,0,1,-1,825,19
"1256",25,56,0.85925438249716,1,1,1,1,1,733,20
"1257",25,57,0.854737963034136,1,3,0,0,1,732,21
"1258",25,58,0.87391531378874,1,2,0,1,-1,931,20
"1259",25,59,0.871806811924468,1,3,0,0,1,743,21
"1260",25,60,0.762589506785897,1,2,0,1,-1,684,20
"1261",26,1,0.514265071926639,-1,2,0,0,1,1171,3
"1262",26,2,0.406441082791045,-1,3,1,0,-1,776,2
"1263",26,3,0.474063031964827,1,1,1,1,1,287,3
"1264",26,4,0.462059840332319,1,3,1,1,1,503,4
"1265",26,5,0.453390806535875,-1,2,1,0,-1,1208,3
"1266",26,6,0.484030128061793,-1,1,1,1,1,784,4
"1267",26,7,0.491440892125283,-1,2,1,0,-1,351,3
"1268",26,8,0.541370180287144,1,1,1,0,-1,344,2
"1269",26,9,0.539070472206264,1,3,1,1,1,296,3
"1270",26,10,0.478532848138348,1,1,1,1,1,312,4
"1271",26,11,0.512248279103342,-1,2,0,1,-1,279,3
"1272",26,12,0.450542769625179,-1,3,0,0,1,287,4
"1273",26,13,0.495765120984106,-1,2,1,1,1,304,5
"1274",26,14,0.555342567545339,1,3,0,1,-1,342,4
"1275",26,15,0.67556010260966,-1,1,1,1,1,447,5
"1276",26,16,0.711965550091221,-1,3,0,0,1,688,6
"1277",26,17,0.741987285854054,1,2,0,1,-1,592,5
"1278",26,18,0.712146182643651,1,1,1,0,-1,336,4
"1279",26,19,0.744706472751151,1,2,0,0,1,351,5
"1280",26,20,0.817164473175629,1,1,1,1,1,496,6
"1281",26,21,0.871738811099864,1,1,1,0,-1,336,5
"1282",26,22,0.805767961456138,1,2,1,0,-1,304,4
"1283",26,23,0.80629365233959,1,3,0,1,-1,177,3
"1284",26,24,0.843222936089444,-1,2,0,1,-1,264,2
"1285",26,25,0.871484333123202,1,1,0,0,1,263,3
"1286",26,26,0.809624850900855,1,3,0,1,-1,408,2
"1287",26,27,0.771805589932831,1,1,0,0,1,984,3
"1288",26,28,0.635458124763493,-1,3,0,0,1,423,4
"1289",26,29,0.661757759165136,-1,2,0,1,-1,417,3
"1290",26,30,0.75419997590853,1,3,0,1,-1,312,2
"1291",26,31,0.77468642523685,-1,1,1,0,-1,287,1
"1292",26,32,0.654561416313377,1,2,1,0,-1,329,0
"1293",26,33,0.513702972798543,1,1,1,1,1,446,1
"1294",26,34,0.4552922134199,-1,2,0,1,-1,265,0
"1295",26,35,0.365867101761374,-1,3,0,0,1,1278,1
"1296",26,36,0.336256701623428,-1,2,1,0,-1,361,0
"1297",26,37,0.333858449012606,-1,1,1,0,-1,1608,-1
"1298",26,38,0.322923361014275,-1,3,0,1,-1,376,-2
"1299",26,39,0.237447759627779,-1,1,1,1,1,335,-1
"1300",26,40,0.333211775416568,-1,3,0,0,1,400,0
"1301",26,41,0.269695867590844,-1,3,0,1,-1,560,-1
"1302",26,42,0.33270258360983,-1,1,0,0,1,376,0
"1303",26,43,0.276246593685745,-1,2,0,0,1,279,1
"1304",26,44,0.293733774414371,-1,1,1,1,1,407,2
"1305",26,45,0.242763790898274,-1,3,1,0,-1,1008,1
"1306",26,46,0.290536177550439,1,2,1,1,1,2392,2
"1307",26,47,0.289118568074523,1,3,0,1,-1,623,1
"1308",26,48,0.222589266581251,-1,2,1,0,-1,960,0
"1309",26,49,0.247969220583459,-1,1,0,0,1,376,1
"1310",26,50,0.317446617078525,1,2,0,1,-1,2120,0
"1311",26,51,0.289174018120205,-1,3,0,0,1,311,1
"1312",26,52,0.290667251268739,-1,1,1,0,-1,2311,0
"1313",26,53,0.255173384451419,-1,3,0,0,1,2864,1
"1314",26,54,0.178663685927203,-1,1,1,0,-1,887,0
"1315",26,55,0.240507804130959,-1,2,1,1,1,471,1
"1316",26,56,0.212505988650662,-1,1,0,1,-1,447,0
"1317",26,57,0.212323592373359,-1,3,1,0,-1,287,-1
"1318",26,58,0.135169870289365,-1,2,0,0,1,392,0
"1319",26,59,0.26208946190399,-1,3,0,1,-1,520,-1
"1320",26,60,0.260028623365742,-1,2,1,1,1,735,0
"1321",28,1,0.426160874017486,-1,2,0,1,-1,1023,5
"1322",28,2,0.547307482908889,-1,3,0,0,1,910,6
"1323",28,3,0.576258439668601,1,1,1,1,1,703,7
"1324",28,4,0.530574846035022,-1,3,0,0,1,1165,8
"1325",28,5,0.59492295818914,1,2,1,0,-1,820,7
"1326",28,6,0.689792962217847,1,1,0,1,-1,445,6
"1327",28,7,0.679957019109024,-1,2,1,1,1,827,7
"1328",28,8,0.714238362066046,-1,1,1,1,1,743,8
"1329",28,9,0.64941291785501,1,3,0,0,1,425,9
"1330",28,10,0.756832329238005,1,1,1,1,1,433,10
"1331",28,11,0.754428257126683,-1,2,1,0,-1,461,9
"1332",28,12,0.809170045271008,-1,3,0,0,1,559,10
"1333",28,13,0.838368119250922,1,2,1,1,1,786,11
"1334",28,14,0.813746815810458,1,3,0,0,1,698,12
"1335",28,15,0.721216547228891,1,1,1,1,1,610,13
"1336",28,16,0.698608738938682,1,3,0,0,1,874,14
"1337",28,17,0.675329540717572,1,2,0,1,-1,1231,13
"1338",28,18,0.668541391869979,1,1,0,1,-1,489,12
"1339",28,19,0.730554197265643,1,2,0,1,-1,801,11
"1340",28,20,0.668364151497574,1,1,1,0,-1,455,10
"1341",28,21,0.591656594266949,1,3,1,1,1,1028,11
"1342",28,22,0.618016539634903,1,1,0,1,-1,688,10
"1343",28,23,0.631342803956357,-1,2,1,0,-1,941,9
"1344",28,24,0.596796661051947,1,1,1,1,1,469,10
"1345",28,25,0.566000251040274,-1,3,1,1,1,929,11
"1346",28,26,0.53994575233454,-1,2,1,1,1,790,12
"1347",28,27,0.518999408368005,1,3,0,0,1,745,13
"1348",28,28,0.469951040420488,-1,2,0,1,-1,837,12
"1349",28,29,0.456068660797397,-1,1,1,1,1,557,13
"1350",28,30,0.508005240161571,-1,2,1,0,-1,896,12
"1351",28,31,0.446087604071488,1,3,1,0,-1,710,11
"1352",28,32,0.374390543311277,-1,1,1,1,1,603,12
"1353",28,33,0.338306469151027,1,3,0,1,-1,725,11
"1354",28,34,0.452318178520421,-1,1,1,1,1,349,12
"1355",28,35,0.43738344846981,1,2,0,0,1,937,13
"1356",28,36,0.485780893178583,1,1,1,1,1,580,14
"1357",28,37,0.506223463764102,1,3,1,0,-1,794,13
"1358",28,38,0.39973588522573,1,2,0,1,-1,1160,12
"1359",28,39,0.334859605750471,-1,3,0,1,-1,598,11
"1360",28,40,0.265990178668519,-1,2,0,0,1,1186,12
"1361",28,41,0.283323879736619,-1,1,1,1,1,633,13
"1362",28,42,0.270864323099868,-1,2,1,1,1,902,14
"1363",28,43,0.382573815062772,-1,3,0,0,1,582,15
"1364",28,44,0.360659118376123,-1,2,0,1,-1,739,14
"1365",28,45,0.492684850796959,1,1,0,1,-1,355,13
"1366",28,46,0.365316497486287,-1,3,0,0,1,956,14
"1367",28,47,0.36632501828328,-1,1,0,1,-1,468,13
"1368",28,48,0.385856674137896,1,3,1,0,-1,830,12
"1369",28,49,0.419579487471319,-1,2,0,1,-1,477,11
"1370",28,50,0.414301281774406,1,3,0,1,-1,1116,10
"1371",28,51,0.276178909326972,-1,1,1,1,1,639,11
"1372",28,52,0.219148257417511,-1,2,1,1,1,832,12
"1373",28,53,0.332969704899106,-1,1,1,1,1,713,13
"1374",28,54,0.364866892671016,1,2,0,1,-1,1023,12
"1375",28,55,0.422341674514669,-1,3,0,1,-1,1293,11
"1376",28,56,0.331863976929236,-1,2,1,0,-1,1050,10
"1377",28,57,0.266137601689234,-1,1,1,1,1,332,11
"1378",28,58,0.203031242101021,-1,3,0,0,1,1060,12
"1379",28,59,0.365379331360846,-1,1,1,1,1,772,13
"1380",28,60,0.343348676714723,-1,3,0,0,1,709,14
"1381",29,1,0.591726696006939,1,1,1,1,1,2123,13
"1382",29,2,0.622358968744724,-1,2,1,1,1,1522,14
"1383",29,3,0.631504529639094,1,3,0,0,1,1353,15
"1384",29,4,0.666417877001577,1,2,0,1,-1,1106,14
"1385",29,5,0.701582378138606,-1,1,0,1,-1,746,13
"1386",29,6,0.608623052417774,1,3,0,1,-1,613,12
"1387",29,7,0.541923728446299,1,1,1,1,1,2544,13
"1388",29,8,0.51411133692088,-1,3,1,1,1,937,14
"1389",29,9,0.470336248329827,1,2,0,1,-1,1036,13
"1390",29,10,0.524439998628842,-1,3,0,1,-1,1307,12
"1391",29,11,0.549821504316245,-1,1,0,1,-1,506,11
"1392",29,12,0.578300023902062,-1,2,0,0,1,3400,12
"1393",29,13,0.445897413725635,-1,1,1,0,-1,599,11
"1394",29,14,0.260630330967321,1,2,1,0,-1,388,10
"1395",29,15,0.225507033375921,-1,3,0,0,1,1005,11
"1396",29,16,0.233778780539208,-1,2,0,1,-1,396,10
"1397",29,17,0.227847387565544,-1,1,0,0,1,101,11
"1398",29,18,0.206070350484446,NA,3,NA,NA,NA,NA,11
"1399",29,19,0.181355299298065,-1,1,1,0,-1,977,10
"1400",29,20,0.241454484871766,1,3,0,1,-1,466,9
"1401",29,21,0.288318234479271,-1,2,1,1,1,313,10
"1402",29,22,0.206714657925915,-1,3,1,0,-1,725,9
"1403",29,23,0.169527940914867,-1,1,1,1,1,346,10
"1404",29,24,0.115093593090501,-1,3,0,1,-1,680,9
"1405",29,25,0.171765336054991,-1,2,1,1,1,1529,10
"1406",29,26,0.236766903283072,1,1,1,1,1,725,11
"1407",29,27,0.253290661774679,-1,2,0,1,-1,757,10
"1408",29,28,0.253442420421108,1,1,0,1,-1,611,9
"1409",29,29,0.192778833954635,-1,3,1,0,-1,808,8
"1410",29,30,0.148570785618294,NA,1,NA,NA,NA,NA,8
"1411",29,31,0.125073338912683,-1,2,1,1,1,410,9
"1412",29,32,0.152029334651703,-1,3,0,1,-1,430,8
"1413",29,33,0.211164585334548,-1,2,1,1,1,457,9
"1414",29,34,0.239821190397577,-1,3,0,0,1,449,10
"1415",29,35,0.445004446474241,1,1,1,1,1,424,11
"1416",29,36,0.353818006090821,-1,3,0,0,1,566,12
"1417",29,37,0.580027063056746,1,2,0,1,-1,2601,11
"1418",29,38,0.613185722257134,1,1,1,1,1,660,12
"1419",29,39,0.593119166767134,1,2,1,1,1,1691,13
"1420",29,40,0.621789215532374,-1,1,1,1,1,537,14
"1421",29,41,0.656663314809113,NA,3,NA,NA,NA,NA,14
"1422",29,42,0.725401342488312,1,1,1,1,1,851,15
"1423",29,43,0.63381451810431,1,2,0,1,-1,2845,14
"1424",29,44,0.593600493407209,-1,1,1,1,1,3447,15
"1425",29,45,0.623873412150241,1,3,0,0,1,2475,16
"1426",29,46,0.734651667011737,1,2,0,1,-1,4367,15
"1427",29,47,0.666590685729188,-1,3,0,0,1,4808,16
"1428",29,48,0.708154820133161,1,2,0,1,-1,706,15
"1429",29,49,0.641794194454809,1,1,1,1,1,568,16
"1430",29,50,0.846505262284625,-1,2,1,0,-1,472,15
"1431",29,51,0.830311462560329,1,3,1,0,-1,610,14
"1432",29,52,0.860152394401933,1,1,1,1,1,526,15
"1433",29,53,0.774908853128456,1,3,0,0,1,1135,16
"1434",29,54,0.723535908833809,1,1,0,1,-1,714,15
"1435",29,55,0.709802333026304,-1,2,1,0,-1,1088,14
"1436",29,56,0.559118783159109,-1,1,1,1,1,619,15
"1437",29,57,0.438978284571772,-1,3,1,0,-1,555,14
"1438",29,58,0.289134621914099,-1,2,0,0,1,1198,15
"1439",29,59,0.326931299279353,1,3,0,0,1,816,16
"1440",29,60,0.381559106290541,1,2,1,1,1,1027,17
"1441",30,1,0.409685085248202,1,2,0,1,-1,1276,-3
"1442",30,2,0.409149403142549,1,3,0,1,-1,918,-4
"1443",30,3,0.415323277379004,1,1,1,1,1,1144,-3
"1444",30,4,0.535691995188287,-1,3,0,0,1,945,-2
"1445",30,5,0.587640039860478,-1,2,0,0,1,808,-1
"1446",30,6,0.664190860261334,1,1,1,1,1,760,0
"1447",30,7,0.550301234418932,-1,2,1,0,-1,908,-1
"1448",30,8,0.64854795058284,-1,1,1,1,1,1258,0
"1449",30,9,0.619457037897284,1,3,0,0,1,1235,1
"1450",30,10,0.786484142895303,-1,1,1,1,1,885,2
"1451",30,11,0.83363986657059,1,2,0,0,1,1038,3
"1452",30,12,0.860542315075057,1,3,0,0,1,1032,4
"1453",30,13,0.82375165789582,1,2,0,0,1,902,5
"1454",30,14,0.843187267565899,1,3,0,0,1,671,6
"1455",30,15,0.814675088086263,1,1,1,1,1,1060,7
"1456",30,16,0.829270433759183,1,3,0,0,1,1947,8
"1457",30,17,0.863466721278493,1,2,1,0,-1,697,7
"1458",30,18,0.867644314884355,-1,1,1,1,1,747,8
"1459",30,19,0.851139259615163,1,2,1,0,-1,759,7
"1460",30,20,0.845306295861396,-1,1,1,1,1,718,8
"1461",30,21,0.890866302144037,1,1,1,1,1,934,9
"1462",30,22,0.849895795618951,1,2,0,1,-1,1469,8
"1463",30,23,0.809173004593418,1,3,0,0,1,850,9
"1464",30,24,0.766582042404782,1,2,1,0,-1,678,8
"1465",30,25,0.659968385778687,-1,1,1,1,1,666,9
"1466",30,26,0.641199549759821,1,3,1,0,-1,944,8
"1467",30,27,0.622464367152038,1,1,1,1,1,916,9
"1468",30,28,0.503577914763276,-1,3,0,1,-1,1343,8
"1469",30,29,0.528758683163251,1,2,0,0,1,2017,9
"1470",30,30,0.507697138654705,-1,3,1,0,-1,678,8
"1471",30,31,0.527900592867289,-1,1,0,1,-1,642,7
"1472",30,32,0.350618695434308,-1,2,1,0,-1,3338,6
"1473",30,33,0.437417727465287,-1,1,0,1,-1,673,5
"1474",30,34,0.469103371519444,1,2,0,0,1,1100,6
"1475",30,35,0.463672560157886,-1,3,1,0,-1,1026,5
"1476",30,36,0.360679597137169,-1,2,1,0,-1,1604,4
"1477",30,37,0.371203595945641,-1,1,0,1,-1,2703,3
"1478",30,38,0.332738891610446,-1,3,0,0,1,813,4
"1479",30,39,0.252758246995764,-1,1,0,1,-1,649,3
"1480",30,40,0.198330215254163,NA,3,NA,NA,NA,NA,3
"1481",30,41,0.180122137077093,1,3,0,0,1,1486,4
"1482",30,42,0.145860495454649,-1,1,0,1,-1,642,3
"1483",30,43,0.153172641587245,1,2,1,0,-1,970,2
"1484",30,44,0.21354316114596,-1,1,1,1,1,609,3
"1485",30,45,0.194520871943584,-1,3,0,0,1,524,4
"1486",30,46,0.249650905992678,-1,2,1,0,-1,763,3
"1487",30,47,0.238244662301626,-1,3,0,0,1,1053,4
"1488",30,48,0.199385186258111,-1,2,0,0,1,547,5
"1489",30,49,0.117746856661772,-1,1,1,1,1,650,6
"1490",30,50,0.153959638759596,-1,2,0,0,1,505,7
"1491",30,51,0.116243055729217,-1,3,0,0,1,2282,8
"1492",30,52,0.154900864871384,-1,1,1,1,1,843,9
"1493",30,53,0.152388299318196,-1,3,1,0,-1,777,8
"1494",30,54,0.218080690299025,-1,1,1,1,1,536,9
"1495",30,55,0.142803791441903,-1,2,1,0,-1,470,8
"1496",30,56,0.276636973719416,-1,1,1,1,1,476,9
"1497",30,57,0.279364227421055,NA,3,NA,NA,NA,NA,9
"1498",30,58,0.225147345102619,-1,2,1,0,-1,1219,8
"1499",30,59,0.187393250190758,1,3,0,0,1,657,9
"1500",30,60,0.198492663290153,-1,2,0,0,1,607,10
"1501",31,1,0.532887848932296,1,3,0,1,-1,1764,6
"1502",31,2,0.617442005330936,-1,1,1,1,1,1816,7
"1503",31,3,0.696539230321405,1,2,1,0,-1,1709,6
"1504",31,4,0.700499125475896,1,1,1,1,1,902,7
"1505",31,5,0.644735276306092,-1,3,0,0,1,1360,8
"1506",31,6,0.580684940832452,-1,2,1,1,1,1254,9
"1507",31,7,0.626149386804729,1,3,0,0,1,1041,10
"1508",31,8,0.704162945970545,-1,2,0,1,-1,1546,9
"1509",31,9,0.762659988166894,-1,1,0,1,-1,834,8
"1510",31,10,0.719183423979206,1,2,1,1,1,1097,9
"1511",31,11,0.6397295268739,-1,3,1,0,-1,1032,8
"1512",31,12,0.583872255765093,1,1,1,1,1,743,9
"1513",31,13,0.703480167592473,1,3,0,1,-1,1202,8
"1514",31,14,0.777470675545907,1,1,1,1,1,829,9
"1515",31,15,0.847227960209136,1,2,1,1,1,1030,10
"1516",31,16,0.858617852622008,1,1,1,1,1,761,11
"1517",31,17,0.857947385018371,-1,3,0,0,1,766,12
"1518",31,18,0.842676617893746,1,2,0,1,-1,831,11
"1519",31,19,0.813340174361443,1,3,0,0,1,867,12
"1520",31,20,0.734922205449884,-1,2,0,1,-1,2717,11
"1521",31,21,0.755869679688086,-1,1,0,1,-1,492,10
"1522",31,22,0.876619850595176,1,2,0,0,1,835,11
"1523",31,23,0.840157225266187,-1,3,0,0,1,567,12
"1524",31,24,0.763535217093018,1,2,1,0,-1,835,11
"1525",31,25,0.679931287845836,1,1,1,1,1,843,12
"1526",31,26,0.641367564704389,1,3,0,0,1,699,13
"1527",31,27,0.541352887171185,-1,1,1,1,1,764,14
"1528",31,28,0.469432522104042,-1,3,0,0,1,1021,15
"1529",31,29,0.424916879097,1,2,0,1,-1,2004,14
"1530",31,30,0.420256190332307,1,3,1,0,-1,2410,13
"1531",31,31,0.410678567005922,-1,1,1,1,1,477,14
"1532",31,32,0.50103648851589,-1,2,1,0,-1,963,13
"1533",31,33,0.403260422489838,1,1,1,1,1,778,14
"1534",31,34,0.405362463043011,-1,2,1,1,1,825,15
"1535",31,35,0.410866376490299,1,3,0,0,1,600,16
"1536",31,36,0.520815851675014,1,2,0,1,-1,1137,15
"1537",31,37,0.485016901273655,-1,1,0,1,-1,737,14
"1538",31,38,0.479022169420784,-1,3,0,0,1,790,15
"1539",31,39,0.492973721425891,-1,1,1,1,1,760,16
"1540",31,40,0.37714351947091,1,3,1,0,-1,802,15
"1541",31,41,0.294928519400771,-1,2,0,1,-1,753,14
"1542",31,42,0.380281094946232,-1,3,0,0,1,754,15
"1543",31,43,0.367249458090061,-1,1,0,1,-1,403,14
"1544",31,44,0.346535667284453,-1,3,1,1,1,1424,15
"1545",31,45,0.23094784563013,-1,2,1,0,-1,1313,14
"1546",31,46,0.210994156640684,1,1,0,1,-1,475,13
"1547",31,47,0.304721033423517,-1,2,0,1,-1,872,12
"1548",31,48,0.215912982845815,1,1,1,1,1,677,13
"1549",31,49,0.129811830299418,-1,3,1,0,-1,770,12
"1550",31,50,0.103524372588732,-1,1,1,1,1,657,13
"1551",31,51,0.162928175952639,-1,2,1,0,-1,1471,12
"1552",31,52,0.166470993570055,-1,3,0,0,1,842,13
"1553",31,53,0.213526484570375,-1,2,0,1,-1,1424,12
"1554",31,54,0.215378954970223,-1,3,0,0,1,770,13
"1555",31,55,0.104638110186194,-1,1,1,1,1,639,14
"1556",31,56,0.120338284191053,-1,3,0,0,1,762,15
"1557",31,57,0.109781295428156,-1,2,1,0,-1,709,14
"1558",31,58,0.111343880483972,-1,1,1,1,1,733,15
"1559",31,59,0.108966455041641,-1,2,0,1,-1,1045,14
"1560",31,60,0.339718533813282,-1,1,1,0,-1,338,13
"1561",32,1,0.506330094052071,-1,3,0,1,-1,4622,-15
"1562",32,2,0.512256346387988,-1,1,0,1,-1,1380,-16
"1563",32,3,0.464638120784054,1,2,1,1,1,2475,-15
"1564",32,4,0.63670067782514,1,1,1,1,1,3117,-14
"1565",32,5,0.647504577589966,-1,3,1,0,-1,835,-15
"1566",32,6,0.703175269530058,1,2,1,0,-1,2649,-16
"1567",32,7,0.679674797577797,1,3,1,0,-1,1993,-17
"1568",32,8,0.6715740684473,-1,2,0,1,-1,1723,-18
"1569",32,9,0.64303665875448,1,1,0,1,-1,1296,-19
"1570",32,10,0.655381261630369,-1,2,1,0,-1,1141,-20
"1571",32,11,0.510226366869554,1,3,0,1,-1,2719,-21
"1572",32,12,0.457625973343508,1,1,1,1,1,1836,-20
"1573",32,13,0.352061822105546,1,3,0,0,1,956,-19
"1574",32,14,0.445464770000494,-1,1,0,1,-1,1843,-20
"1575",32,15,0.433230509562471,-1,2,1,1,1,1765,-19
"1576",32,16,0.375995826548791,-1,1,1,0,-1,1264,-20
"1577",32,17,0.365578041552884,1,3,1,0,-1,1298,-21
"1578",32,18,0.32441817775337,-1,2,1,0,-1,2657,-22
"1579",32,19,0.318736835583654,1,3,0,1,-1,1071,-23
"1580",32,20,0.389304931153563,1,2,1,1,1,475,-22
"1581",32,21,0.322074417831948,1,1,1,1,1,1376,-21
"1582",32,22,0.234914514886645,-1,2,1,0,-1,1127,-22
"1583",32,23,0.210376618881566,1,3,0,0,1,1450,-21
"1584",32,24,0.14391875595284,-1,2,0,1,-1,2926,-22
"1585",32,25,0.295361057142599,-1,1,1,1,1,2289,-21
"1586",32,26,0.398067183895811,-1,3,0,0,1,1597,-20
"1587",32,27,0.469111489857873,-1,1,1,1,1,1833,-19
"1588",32,28,0.498203747510097,-1,3,0,0,1,1931,-18
"1589",32,29,0.469703314241243,1,2,0,1,-1,1737,-19
"1590",32,30,0.417680380374304,1,3,0,1,-1,1261,-20
"1591",32,31,0.56598759662372,-1,1,1,0,-1,2146,-21
"1592",32,32,0.379970799304704,1,2,1,1,1,1161,-20
"1593",32,33,0.453914844601902,1,1,0,1,-1,1506,-21
"1594",32,34,0.475150272623593,1,2,0,0,1,3109,-20
"1595",32,35,0.394015802911003,1,3,0,1,-1,1584,-21
"1596",32,36,0.382844020629973,1,2,0,0,1,3465,-20
"1597",32,37,0.402173172519772,-1,1,1,1,1,1314,-19
"1598",32,38,0.359723315681064,-1,3,0,1,-1,2637,-20
"1599",32,39,0.214714343067004,-1,1,1,1,1,1569,-19
"1600",32,40,0.280856358310905,1,3,1,0,-1,1923,-20
"1601",32,41,0.387190772254096,1,2,0,0,1,1411,-19
"1602",32,42,0.524676180657753,1,3,0,1,-1,1468,-20
"1603",32,43,0.442401291734525,-1,1,1,1,1,2436,-19
"1604",32,44,0.462111000191551,-1,3,0,0,1,1048,-18
"1605",32,45,0.430381617343496,-1,2,0,0,1,1281,-17
"1606",32,46,0.458821138732795,-1,1,1,1,1,1084,-16
"1607",32,47,0.495084649498908,1,2,0,1,-1,1168,-17
"1608",32,48,0.635117021599633,1,1,1,1,1,1387,-16
"1609",32,49,0.72244256710979,-1,3,0,0,1,1793,-15
"1610",32,50,0.767179581482694,1,1,0,0,1,1329,-14
"1611",32,51,0.794760325331061,-1,2,0,0,1,1543,-13
"1612",32,52,0.778678495807286,1,3,1,1,1,1794,-12
"1613",32,53,0.882440978357807,1,2,1,1,1,2522,-11
"1614",32,54,0.839673977395956,1,3,0,0,1,2264,-10
"1615",32,55,0.829087758162336,1,1,1,1,1,1767,-9
"1616",32,56,0.839964162564575,1,3,0,1,-1,1332,-10
"1617",32,57,0.884111386177846,1,2,0,0,1,2497,-9
"1618",32,58,0.897570847344456,1,1,1,1,1,1398,-8
"1619",32,59,0.802683665169687,1,2,1,0,-1,1528,-9
"1620",32,60,0.807557512916059,1,1,1,0,-1,1695,-10
"1621",33,1,0.445695332624018,-1,2,0,0,1,1169,7
"1622",33,2,0.557226263469078,1,3,0,0,1,464,8
"1623",33,3,0.534113562468362,1,1,1,0,-1,399,7
"1624",33,4,0.50816504743142,1,3,0,0,1,898,8
"1625",33,5,0.570938096487741,1,2,1,0,-1,404,7
"1626",33,6,0.52904945396709,1,1,1,1,1,860,8
"1627",33,7,0.516084628143219,1,2,1,1,1,865,9
"1628",33,8,0.503733815452738,-1,1,0,1,-1,737,8
"1629",33,9,0.43170245331956,-1,3,1,0,-1,861,7
"1630",33,10,0.326251485041851,1,1,0,1,-1,859,6
"1631",33,11,0.355228346687094,1,2,1,1,1,937,7
"1632",33,12,0.45115392577065,1,3,0,0,1,1036,8
"1633",33,13,0.343710957155173,1,2,1,1,1,957,9
"1634",33,14,0.367967747621978,-1,3,1,0,-1,1125,8
"1635",33,15,0.439174105598226,-1,1,1,1,1,583,9
"1636",33,16,0.342068941697357,-1,3,0,0,1,879,10
"1637",33,17,0.263109391208456,-1,2,0,1,-1,659,9
"1638",33,18,0.301278393337087,-1,1,1,1,1,814,10
"1639",33,19,0.331728465406012,1,2,1,1,1,920,11
"1640",33,20,0.325411474854872,-1,1,1,1,1,663,12
"1641",33,21,0.391917841970946,-1,1,1,1,1,936,13
"1642",33,22,0.458408567544218,-1,2,1,1,1,778,14
"1643",33,23,0.423579712846535,1,3,0,0,1,820,15
"1644",33,24,0.496387816481033,-1,2,1,1,1,691,16
"1645",33,25,0.675285922390781,1,1,1,1,1,820,17
"1646",33,26,0.788960251965249,-1,3,1,0,-1,793,16
"1647",33,27,0.71152042429356,1,1,0,1,-1,658,15
"1648",33,28,0.648415903878688,-1,3,0,0,1,796,16
"1649",33,29,0.562818517757014,1,2,1,1,1,666,17
"1650",33,30,0.662254213353837,-1,3,1,0,-1,706,16
"1651",33,31,0.614993516836899,1,1,0,1,-1,881,15
"1652",33,32,0.418241924269646,1,2,0,1,-1,754,14
"1653",33,33,0.430807733896415,-1,1,1,1,1,801,15
"1654",33,34,0.278687702029245,1,2,0,1,-1,590,14
"1655",33,35,0.286685647421717,-1,3,0,0,1,624,15
"1656",33,36,0.337996192465687,1,2,0,1,-1,310,14
"1657",33,37,0.359833852445145,-1,1,0,1,-1,771,13
"1658",33,38,0.356738920264927,-1,3,0,0,1,620,14
"1659",33,39,0.505324202384524,-1,1,1,1,1,843,15
"1660",33,40,0.561446406095194,1,3,0,0,1,945,16
"1661",33,41,0.566215004747871,-1,3,0,0,1,805,17
"1662",33,42,0.645029909553441,1,1,1,1,1,864,18
"1663",33,43,0.686937339236995,1,2,0,1,-1,532,17
"1664",33,44,0.840639751486693,1,1,1,1,1,664,18
"1665",33,45,0.779946361509808,1,3,0,0,1,560,19
"1666",33,46,0.833921653255595,-1,2,1,1,1,574,20
"1667",33,47,0.815911237824416,1,3,0,0,1,1284,21
"1668",33,48,0.834925200550317,1,2,0,1,-1,676,20
"1669",33,49,0.791079979120591,1,1,1,1,1,722,21
"1670",33,50,0.814454847946254,1,2,0,1,-1,729,20
"1671",33,51,0.859012305454352,1,3,0,0,1,1031,21
"1672",33,52,0.840115538983829,1,1,1,1,1,624,22
"1673",33,53,0.889937466463605,1,3,0,0,1,724,23
"1674",33,54,0.790494576467285,1,1,1,1,1,744,24
"1675",33,55,0.662428725900867,1,2,0,0,1,1288,25
"1676",33,56,0.610965305979271,1,1,1,1,1,762,26
"1677",33,57,0.6725933165379,1,3,0,0,1,710,27
"1678",33,58,0.514048950652565,1,2,0,0,1,1045,28
"1679",33,59,0.495587781358253,1,3,1,0,-1,734,27
"1680",33,60,0.413773751295807,-1,2,1,0,-1,1080,26
"1681",34,1,0.485813844762743,-1,1,1,1,1,1142,-4
"1682",34,2,0.538437254226045,1,2,0,1,-1,2032,-5
"1683",34,3,0.471985443603339,1,3,0,1,-1,1097,-6
"1684",34,4,0.473426852427009,-1,2,0,1,-1,1467,-7
"1685",34,5,0.479294869599757,1,1,0,1,-1,823,-8
"1686",34,6,0.563943953140572,-1,3,0,0,1,673,-7
"1687",34,7,0.481327472579457,-1,1,1,1,1,1833,-6
"1688",34,8,0.481768749433575,1,3,0,1,-1,3912,-7
"1689",34,9,0.450010044756107,1,2,0,1,-1,1706,-8
"1690",34,10,0.486967439771764,-1,3,0,1,-1,392,-9
"1691",34,11,0.510690688107573,-1,1,1,0,-1,3630,-10
"1692",34,12,0.649815541510555,-1,2,1,1,1,3705,-9
"1693",34,13,0.687370995795919,-1,1,1,0,-1,1638,-10
"1694",34,14,0.689169474396233,1,2,0,1,-1,456,-11
"1695",34,15,0.696986225524106,-1,3,0,1,-1,504,-12
"1696",34,16,0.715539845511147,-1,2,0,1,-1,1856,-13
"1697",34,17,0.667862662180355,1,1,1,1,1,106,-12
"1698",34,18,0.766605332834015,1,3,0,1,-1,286,-13
"1699",34,19,0.646923682518173,-1,1,1,1,1,551,-12
"1700",34,20,0.542167749415836,1,3,0,1,-1,135,-13
"1701",34,21,0.751429709573212,1,2,0,1,-1,225,-14
"1702",34,22,0.76095294935183,NA,3,NA,NA,NA,NA,-14
"1703",34,23,0.7828990903481,1,1,1,0,-1,847,-15
"1704",34,24,0.791383799017847,NA,3,NA,NA,NA,NA,-15
"1705",34,25,0.813227438705242,1,2,1,0,-1,2748,-16
"1706",34,26,0.74731532447401,1,1,1,0,-1,3728,-17
"1707",34,27,0.527838568537572,1,2,1,0,-1,567,-18
"1708",34,28,0.683494748799408,-1,1,1,0,-1,4448,-19
"1709",34,29,0.602759151783948,1,3,0,0,1,1361,-18
"1710",34,30,0.540385051029841,-1,1,1,0,-1,2887,-19
"1711",34,31,0.560266799121531,-1,2,1,0,-1,231,-20
"1712",34,32,0.586184068884689,1,3,1,1,1,784,-19
"1713",34,33,0.485447768330072,-1,2,1,1,1,615,-18
"1714",34,34,0.513065807136654,1,3,0,0,1,41,-17
"1715",34,35,0.50361259682629,1,1,1,0,-1,3183,-18
"1716",34,36,0.424132147186187,-1,3,1,0,-1,839,-19
"1717",34,37,0.384760471124204,-1,2,1,0,-1,1286,-20
"1718",34,38,0.31250544042368,1,1,1,0,-1,298,-21
"1719",34,39,0.37486069577353,1,2,0,0,1,1716,-20
"1720",34,40,0.325516406986286,-1,1,0,0,1,401,-19
"1721",34,41,0.295619280727141,1,3,1,0,-1,1408,-20
"1722",34,42,0.323219539745062,-1,1,1,0,-1,943,-21
"1723",34,43,0.243128289237604,-1,2,1,0,-1,3816,-22
"1724",34,44,0.255554318067488,1,1,0,0,1,343,-21
"1725",34,45,0.236579022038927,-1,3,0,0,1,3002,-20
"1726",34,46,0.131159542261499,-1,2,0,0,1,1055,-19
"1727",34,47,0.113745396149055,-1,3,0,0,1,103,-18
"1728",34,48,0.108037447340834,-1,2,1,0,-1,3688,-19
"1729",34,49,0.126362269840759,-1,1,1,1,1,1809,-18
"1730",34,50,0.214921049958309,-1,2,0,1,-1,262,-19
"1731",34,51,0.284808534872513,-1,3,1,0,-1,167,-20
"1732",34,52,0.345875522795244,-1,1,0,0,1,775,-19
"1733",34,53,0.405821787804623,-1,3,0,0,1,2839,-18
"1734",34,54,0.426721732324564,-1,1,1,1,1,471,-17
"1735",34,55,0.43497421688201,-1,2,0,1,-1,560,-18
"1736",34,56,0.469101450645,1,1,0,0,1,696,-17
"1737",34,57,0.451338101274856,-1,3,1,0,-1,2528,-18
"1738",34,58,0.3899542948985,1,2,1,1,1,1080,-17
"1739",34,59,0.332980753261955,1,3,0,1,-1,1744,-18
"1740",34,60,0.310713409189894,-1,2,1,1,1,518,-17
"1741",35,1,0.481860409953052,-1,1,0,1,-1,2054,-1
"1742",35,2,0.480533853166924,-1,2,1,1,1,1052,0
"1743",35,3,0.455679319858461,-1,3,0,1,-1,1202,-1
"1744",35,4,0.454424134183273,1,2,0,1,-1,1054,-2
"1745",35,5,0.367081830505326,1,1,1,0,-1,783,-3
"1746",35,6,0.327290325080509,-1,3,1,0,-1,1167,-4
"1747",35,7,0.199740633267187,-1,1,1,1,1,1152,-3
"1748",35,8,0.177327986364891,-1,3,1,1,1,751,-2
"1749",35,9,0.293445093388677,-1,2,1,1,1,911,-1
"1750",35,10,0.271717347709203,-1,3,0,1,-1,448,-2
"1751",35,11,0.459411378952134,1,1,1,0,-1,464,-3
"1752",35,12,0.44471548674307,-1,2,1,1,1,639,-2
"1753",35,13,0.405291749869838,-1,1,1,0,-1,850,-3
"1754",35,14,0.357249825235049,-1,2,0,1,-1,574,-4
"1755",35,15,0.337964836056509,1,3,0,1,-1,895,-5
"1756",35,16,0.350692779133418,-1,2,0,1,-1,784,-6
"1757",35,17,0.458140078764021,-1,1,1,1,1,815,-5
"1758",35,18,0.496326327616284,-1,3,0,0,1,800,-4
"1759",35,19,0.534915148852882,-1,1,0,1,-1,831,-5
"1760",35,20,0.488805048606051,-1,3,1,0,-1,815,-6
"1761",35,21,0.454195486128436,-1,3,0,0,1,1088,-5
"1762",35,22,0.484007971323429,-1,1,0,1,-1,1358,-6
"1763",35,23,0.391219837350177,1,2,1,1,1,1328,-5
"1764",35,24,0.361482857137928,1,1,1,1,1,1278,-4
"1765",35,25,0.305860438073718,1,3,0,0,1,1376,-3
"1766",35,26,0.331511098088276,-1,2,0,1,-1,1216,-4
"1767",35,27,0.284775560771338,-1,3,0,0,1,1648,-3
"1768",35,28,0.251204505775538,1,2,0,1,-1,2063,-4
"1769",35,29,0.293576515004049,1,1,0,1,-1,1439,-5
"1770",35,30,0.293151378086082,1,2,1,1,1,2176,-4
"1771",35,31,0.448731006154007,1,3,0,0,1,1728,-3
"1772",35,32,0.407509961000219,-1,1,1,1,1,2479,-2
"1773",35,33,0.490496687767555,-1,3,0,0,1,1647,-1
"1774",35,34,0.527472311232806,-1,1,1,1,1,1665,0
"1775",35,35,0.640213284723382,-1,2,1,1,1,1264,1
"1776",35,36,0.646505523763021,-1,1,1,1,1,1343,2
"1777",35,37,0.588716111966421,1,3,1,0,-1,1023,1
"1778",35,38,0.559166721345115,1,2,1,1,1,1455,2
"1779",35,39,0.605873370792883,1,3,0,0,1,2384,3
"1780",35,40,0.708384903263729,-1,2,0,1,-1,1567,2
"1781",35,41,0.821673003200161,1,2,0,1,-1,1631,1
"1782",35,42,0.843956102327918,-1,3,0,0,1,1073,2
"1783",35,43,0.852930984989974,1,1,1,1,1,1921,3
"1784",35,44,0.849575680969209,-1,3,0,0,1,1568,4
"1785",35,45,0.842623806856676,1,2,0,0,1,3519,5
"1786",35,46,0.878332591273013,1,1,1,1,1,1503,6
"1787",35,47,0.742408490802268,1,2,0,1,-1,1791,5
"1788",35,48,0.77490735896685,1,1,0,1,-1,1070,4
"1789",35,49,0.812094442352528,1,3,0,0,1,1312,5
"1790",35,50,0.779692393574929,1,1,1,1,1,1147,6
"1791",35,51,0.820187718186392,1,2,0,1,-1,1391,5
"1792",35,52,0.603812130973182,1,3,1,0,-1,1824,4
"1793",35,53,0.601959608006467,1,2,1,1,1,1298,5
"1794",35,54,0.611854877222351,-1,3,0,0,1,2172,6
"1795",35,55,0.589073986116796,1,1,1,1,1,1265,7
"1796",35,56,0.56554686267339,1,3,0,0,1,1230,8
"1797",35,57,0.5784635837189,1,2,1,1,1,1392,9
"1798",35,58,0.599267658096128,1,1,1,1,1,1199,10
"1799",35,59,0.653031151012565,1,2,1,1,1,2063,11
"1800",35,60,0.6342749825349,1,1,1,1,1,1151,12
"1801",36,1,0.454649079036685,-1,2,0,1,-1,2919,-3
"1802",36,2,0.440412753729436,-1,3,1,1,1,980,-2
"1803",36,3,0.36987176862392,1,1,1,1,1,741,-1
"1804",36,4,0.376974075786162,1,3,0,1,-1,1127,-2
"1805",36,5,0.389498111163849,-1,2,0,0,1,1775,-1
"1806",36,6,0.437873251499527,-1,1,1,1,1,1004,0
"1807",36,7,0.290627467807921,-1,2,0,0,1,1110,1
"1808",36,8,0.278676780653498,1,1,0,1,-1,896,0
"1809",36,9,0.29572532066541,-1,3,0,1,-1,1300,-1
"1810",36,10,0.260848020049415,-1,1,1,1,1,875,0
"1811",36,11,0.174580680841268,-1,2,1,0,-1,1324,-1
"1812",36,12,0.25137342091618,-1,3,0,1,-1,857,-2
"1813",36,13,0.229295458465755,-1,2,1,1,1,881,-1
"1814",36,14,0.196042416512892,1,3,0,0,1,1244,0
"1815",36,15,0.164606601176937,-1,1,0,1,-1,907,-1
"1816",36,16,0.170546609411042,-1,3,0,1,-1,913,-2
"1817",36,17,0.290968866510084,-1,2,1,1,1,1089,-1
"1818",36,18,0.356889830869092,1,1,1,0,-1,1492,-2
"1819",36,19,0.432400428517592,-1,2,1,0,-1,1051,-3
"1820",36,20,0.472142659753566,-1,1,1,1,1,1308,-2
"1821",36,21,0.513021898607858,1,3,1,1,1,745,-1
"1822",36,22,0.626042928810187,-1,1,1,1,1,661,0
"1823",36,23,0.771730439180961,1,2,1,1,1,680,1
"1824",36,24,0.670030261064779,1,1,1,0,-1,839,0
"1825",36,25,0.787700628505839,1,3,0,1,-1,529,-1
"1826",36,26,0.737576131780146,1,2,1,0,-1,860,-2
"1827",36,27,0.72103879968802,-1,3,0,1,-1,697,-3
"1828",36,28,0.737724318466933,-1,2,0,1,-1,577,-4
"1829",36,29,0.869659812328479,1,1,1,1,1,520,-3
"1830",36,30,0.853625971495134,1,2,1,1,1,792,-2
"1831",36,31,0.714619323232259,1,3,1,1,1,693,-1
"1832",36,32,0.800082381224988,1,1,1,1,1,533,0
"1833",36,33,0.714387671921162,1,3,0,1,-1,588,-1
"1834",36,34,0.749598311345251,1,1,1,1,1,1126,0
"1835",36,35,0.619052959557106,-1,2,1,1,1,439,1
"1836",36,36,0.5830206722418,1,1,0,1,-1,486,0
"1837",36,37,0.602763506279859,-1,3,1,1,1,549,1
"1838",36,38,0.508001668748115,-1,2,1,1,1,705,2
"1839",36,39,0.44876955021516,-1,3,0,1,-1,895,1
"1840",36,40,0.458387600740961,1,2,0,1,-1,965,0
"1841",36,41,0.508625413617944,-1,1,1,1,1,714,1
"1842",36,42,0.428915321170668,1,2,0,1,-1,599,0
"1843",36,43,0.37883890693657,-1,3,0,1,-1,655,-1
"1844",36,44,0.368729924901958,-1,2,0,1,-1,690,-2
"1845",36,45,0.409932029031399,-1,1,1,1,1,554,-1
"1846",36,46,0.445189152058554,1,3,0,1,-1,675,-2
"1847",36,47,0.513457417339593,1,1,1,1,1,833,-1
"1848",36,48,0.327336347445545,1,3,0,0,1,911,0
"1849",36,49,0.35118353815075,-1,2,0,1,-1,610,-1
"1850",36,50,0.380402920493647,-1,3,0,0,1,634,0
"1851",36,51,0.462261135884395,1,1,0,1,-1,1521,-1
"1852",36,52,0.520651660660118,1,2,0,1,-1,653,-2
"1853",36,53,0.585163401483005,-1,1,0,1,-1,867,-3
"1854",36,54,0.611875557069778,1,2,0,1,-1,873,-4
"1855",36,55,0.662381151992424,1,3,1,0,-1,792,-5
"1856",36,56,0.752393654755404,1,2,1,1,1,599,-4
"1857",36,57,0.885346730513093,1,1,1,1,1,571,-3
"1858",36,58,0.797304601095815,1,3,0,1,-1,1173,-4
"1859",36,59,0.75570418801433,1,1,1,1,1,561,-3
"1860",36,60,0.721457440449311,1,3,0,1,-1,925,-4
"1861",37,1,0.557765958504751,1,2,0,1,-1,1655,-3
"1862",37,2,0.580687251702074,1,3,0,1,-1,1188,-4
"1863",37,3,0.57696772882883,-1,1,1,1,1,2159,-3
"1864",37,4,0.56578865366662,1,3,0,1,-1,1269,-4
"1865",37,5,0.535948259562917,1,2,0,0,1,1080,-3
"1866",37,6,0.408219530345028,-1,1,0,1,-1,647,-4
"1867",37,7,0.402399354605802,1,2,1,0,-1,574,-5
"1868",37,8,0.357189144518117,-1,1,1,1,1,823,-4
"1869",37,9,0.271415807760794,-1,3,1,0,-1,1231,-5
"1870",37,10,0.207581050477668,-1,1,1,1,1,852,-4
"1871",37,11,0.147604813283643,-1,2,0,0,1,758,-3
"1872",37,12,0.124619783287939,-1,3,1,1,1,653,-2
"1873",37,13,0.129501101580245,-1,2,1,0,-1,728,-3
"1874",37,14,0.107261983255754,-1,3,0,1,-1,559,-4
"1875",37,15,0.19197547529676,-1,1,1,1,1,656,-3
"1876",37,16,0.254982315099762,-1,3,1,1,1,711,-2
"1877",37,17,0.336560517098336,-1,2,0,0,1,469,-1
"1878",37,18,0.334391337432616,1,1,1,1,1,581,0
"1879",37,19,0.313184106752654,-1,2,1,0,-1,530,-1
"1880",37,20,0.324229557455507,-1,1,1,1,1,549,0
"1881",37,21,0.290693212321194,-1,1,1,1,1,1518,1
"1882",37,22,0.433116617656927,1,2,0,0,1,470,2
"1883",37,23,0.368800952151436,-1,3,0,1,-1,466,1
"1884",37,24,0.255612184647794,-1,2,1,0,-1,1004,0
"1885",37,25,0.504533947053933,1,1,0,1,-1,678,-1
"1886",37,26,0.486051795968584,-1,3,0,1,-1,782,-2
"1887",37,27,0.586562497441805,-1,1,0,1,-1,535,-3
"1888",37,28,0.59703926074477,1,3,0,1,-1,718,-4
"1889",37,29,0.589954331766819,-1,2,1,0,-1,927,-5
"1890",37,30,0.612335152748227,1,3,0,0,1,927,-4
"1891",37,31,0.544653306216234,1,1,1,0,-1,311,-5
"1892",37,32,0.563872441493723,1,2,0,0,1,616,-4
"1893",37,33,0.59047641994201,-1,1,0,1,-1,572,-5
"1894",37,34,0.58666664923295,-1,2,1,0,-1,623,-6
"1895",37,35,0.636458345753325,1,3,0,1,-1,580,-7
"1896",37,36,0.520189567384742,-1,2,0,0,1,479,-6
"1897",37,37,0.574784510301621,1,1,1,0,-1,371,-7
"1898",37,38,0.669048754941861,1,3,0,0,1,1031,-6
"1899",37,39,0.695996154751039,1,1,1,1,1,541,-5
"1900",37,40,0.708335440287932,1,3,0,0,1,783,-4
"1901",37,41,0.634536638465802,1,3,0,0,1,686,-3
"1902",37,42,0.750502227902547,1,1,0,1,-1,599,-4
"1903",37,43,0.761256977339484,1,2,1,0,-1,583,-5
"1904",37,44,0.749558763371612,1,1,1,1,1,543,-4
"1905",37,45,0.80488082874156,1,3,0,0,1,2673,-3
"1906",37,46,0.812286465405115,1,2,1,0,-1,924,-4
"1907",37,47,0.699160523385101,1,3,0,0,1,489,-3
"1908",37,48,0.688114731257366,1,2,0,0,1,829,-2
"1909",37,49,0.60847958250974,1,1,1,1,1,520,-1
"1910",37,50,0.621700698762825,-1,2,1,0,-1,501,-2
"1911",37,51,0.578838100504204,1,3,1,0,-1,503,-3
"1912",37,52,0.61130179318281,1,1,1,1,1,472,-2
"1913",37,53,0.53049446984092,-1,3,1,0,-1,647,-3
"1914",37,54,0.473998524823287,-1,1,1,1,1,630,-2
"1915",37,55,0.456582800162195,-1,2,0,0,1,3383,-1
"1916",37,56,0.456281718467418,-1,1,1,1,1,973,0
"1917",37,57,0.451070205787951,-1,3,0,0,1,527,1
"1918",37,58,0.539102881195328,1,2,0,0,1,494,2
"1919",37,59,0.479525632086498,1,3,0,0,1,1134,3
"1920",37,60,0.53087309424583,1,2,1,0,-1,521,2
"1921",38,1,0.543862038711086,1,3,1,0,-1,1416,1
"1922",38,2,0.523685772598578,-1,1,0,1,-1,1056,0
"1923",38,3,0.526244380397468,-1,2,1,0,-1,1720,-1
"1924",38,4,0.552959700952315,-1,1,1,0,-1,407,-2
"1925",38,5,0.53917218340921,-1,3,1,0,-1,385,-3
"1926",38,6,0.55157300202654,-1,2,1,1,1,696,-2
"1927",38,7,0.578409420725796,-1,3,0,1,-1,1080,-3
"1928",38,8,0.43910293670341,1,2,0,0,1,392,-2
"1929",38,9,0.410881893636891,1,1,1,0,-1,992,-3
"1930",38,10,0.425237446211864,1,2,0,1,-1,336,-4
"1931",38,11,0.404481604362083,-1,3,1,1,1,191,-3
"1932",38,12,0.345850245356484,1,1,1,1,1,329,-2
"1933",38,13,0.479885546166032,-1,3,0,1,-1,392,-3
"1934",38,14,0.561924348507652,1,1,1,1,1,735,-2
"1935",38,15,0.656614425952653,-1,2,1,0,-1,745,-3
"1936",38,16,0.549259154698082,-1,1,0,0,1,688,-2
"1937",38,17,0.550424487099984,-1,3,0,0,1,600,-1
"1938",38,18,0.594039755450587,1,2,1,0,-1,888,-2
"1939",38,19,0.658824639062685,-1,3,0,1,-1,504,-3
"1940",38,20,0.73379577976593,1,2,1,0,-1,495,-4
"1941",38,21,0.852721261075482,-1,2,1,1,1,511,-3
"1942",38,22,0.835624179337287,-1,3,0,1,-1,368,-4
"1943",38,23,0.699323608418612,-1,1,0,0,1,1232,-3
"1944",38,24,0.697513075108617,1,3,0,0,1,1440,-2
"1945",38,25,0.806304489904034,-1,2,0,0,1,608,-1
"1946",38,26,0.887511339871544,1,1,1,1,1,664,0
"1947",38,27,0.808629095889025,-1,2,0,1,-1,519,-1
"1948",38,28,0.876864557339549,1,1,1,1,1,1160,0
"1949",38,29,0.8870490895161,1,3,1,0,-1,400,-1
"1950",38,30,0.850706220113421,1,1,0,1,-1,263,-2
"1951",38,31,0.707722296951079,1,2,1,1,1,257,-1
"1952",38,32,0.706342606931819,-1,3,0,1,-1,368,-2
"1953",38,33,0.759691033393089,-1,2,1,1,1,328,-1
"1954",38,34,0.720092816832104,1,3,0,1,-1,320,-2
"1955",38,35,0.590514663639523,-1,1,1,0,-1,304,-3
"1956",38,36,0.527356038101153,-1,3,0,0,1,312,-2
"1957",38,37,0.412584181190257,1,2,1,0,-1,831,-3
"1958",38,38,0.360961279973942,1,1,1,1,1,249,-2
"1959",38,39,0.260384803680408,-1,2,0,1,-1,888,-3
"1960",38,40,0.240132620455997,-1,1,1,1,1,719,-2
"1961",38,41,0.286647657593046,-1,1,1,1,1,721,-1
"1962",38,42,0.305477721328814,-1,2,0,0,1,1104,0
"1963",38,43,0.344557807273302,-1,3,0,0,1,375,1
"1964",38,44,0.343690283717357,1,2,0,0,1,425,2
"1965",38,45,0.313330543909165,-1,1,1,1,1,272,3
"1966",38,46,0.206237520741975,-1,3,0,1,-1,303,2
"1967",38,47,0.186412748991407,-1,1,1,0,-1,585,1
"1968",38,48,0.317356643075011,-1,3,0,1,-1,208,0
"1969",38,49,0.371988128005884,1,2,1,1,1,424,1
"1970",38,50,0.403246730132371,1,3,1,1,1,335,2
"1971",38,51,0.353129266843551,-1,1,1,0,-1,441,1
"1972",38,52,0.317877933459404,-1,2,0,0,1,216,2
"1973",38,53,0.226699194475574,-1,1,1,0,-1,520,1
"1974",38,54,0.224415912553273,-1,2,0,1,-1,280,0
"1975",38,55,0.285543877191762,-1,3,0,1,-1,232,-1
"1976",38,56,0.34280913936024,-1,2,0,1,-1,319,-2
"1977",38,57,0.466300769904957,-1,1,0,0,1,399,-1
"1978",38,58,0.495854585842243,-1,3,0,0,1,593,0
"1979",38,59,0.430671854790651,-1,1,1,0,-1,648,-1
"1980",38,60,0.461094886056529,-1,3,0,1,-1,479,-2
"1981",39,1,0.469624613272026,-1,3,1,1,1,1891,-5
"1982",39,2,0.536317053525134,-1,1,1,1,1,1423,-4
"1983",39,3,0.557283291331748,-1,2,1,0,-1,992,-5
"1984",39,4,0.600518470118646,1,1,1,1,1,40,-4
"1985",39,5,0.629458312486766,1,3,0,1,-1,176,-5
"1986",39,6,0.626123720184009,1,2,0,1,-1,136,-6
"1987",39,7,0.600056746623415,1,3,0,1,-1,137,-7
"1988",39,8,0.61782585279508,-1,2,1,0,-1,56,-8
"1989",39,9,0.641894504346313,-1,1,1,1,1,192,-7
"1990",39,10,0.586222953779923,1,2,1,1,1,144,-6
"1991",39,11,0.566012264944915,-1,3,0,1,-1,264,-7
"1992",39,12,0.478445005086891,1,1,0,1,-1,72,-8
"1993",39,13,0.385546166783611,-1,3,0,0,1,800,-7
"1994",39,14,0.30116201699641,-1,1,1,1,1,104,-6
"1995",39,15,0.304143855694569,-1,2,0,1,-1,96,-7
"1996",39,16,0.218154132419809,-1,1,0,0,1,1391,-6
"1997",39,17,0.239884486287018,1,3,0,1,-1,912,-7
"1998",39,18,0.187225782038336,1,2,0,0,1,1097,-6
"1999",39,19,0.133153464397969,-1,3,0,0,1,776,-5
"2000",39,20,0.205548943842099,1,2,0,1,-1,400,-6
"2001",39,21,0.112602307713264,-1,1,1,0,-1,264,-7
"2002",39,22,0.168652667968515,-1,2,0,0,1,360,-6
"2003",39,23,0.383469552316197,1,3,0,1,-1,479,-7
"2004",39,24,0.32742699005806,-1,2,1,0,-1,272,-8
"2005",39,25,0.405854910534412,1,1,1,0,-1,168,-9
"2006",39,26,0.492472102414103,1,3,0,0,1,416,-8
"2007",39,27,0.48505940524252,-1,1,0,0,1,312,-7
"2008",39,28,0.484406641177267,-1,3,1,0,-1,384,-8
"2009",39,29,0.410054634900477,1,2,1,1,1,271,-7
"2010",39,30,0.380791534480542,1,3,1,1,1,535,-6
"2011",39,31,0.34792349667037,-1,1,1,1,1,584,-5
"2012",39,32,0.233552130033618,-1,2,1,0,-1,1127,-6
"2013",39,33,0.233990757713223,-1,1,1,1,1,871,-5
"2014",39,34,0.20657669908169,-1,2,1,1,1,448,-4
"2015",39,35,0.19613143094749,1,3,1,1,1,128,-3
"2016",39,36,0.12555103089983,-1,2,1,0,-1,232,-4
"2017",39,37,0.17005437482815,1,1,0,1,-1,103,-5
"2018",39,38,0.36336088675012,1,3,0,1,-1,1200,-6
"2019",39,39,0.409680450974733,1,1,1,0,-1,72,-7
"2020",39,40,0.474068629654822,1,3,0,0,1,312,-6
"2021",39,41,0.670651068392142,1,2,1,1,1,680,-5
"2022",39,42,0.634453905111466,-1,3,0,0,1,1087,-4
"2023",39,43,0.603554183386275,1,1,1,1,1,1512,-3
"2024",39,44,0.496771229652378,1,3,0,0,1,1279,-2
"2025",39,45,0.493505630844063,-1,2,0,1,-1,1511,-3
"2026",39,46,0.537139380347946,1,1,1,1,1,1136,-2
"2027",39,47,0.569587938015865,1,2,0,1,-1,1232,-3
"2028",39,48,0.589829701706017,-1,1,1,1,1,1704,-2
"2029",39,49,0.695645641606384,1,3,1,0,-1,1561,-3
"2030",39,50,0.675470790418286,1,1,1,1,1,1176,-2
"2031",39,51,0.757795437765255,1,2,0,1,-1,768,-3
"2032",39,52,0.742916184867874,1,3,0,1,-1,183,-4
"2033",39,53,0.729912324686619,1,2,1,1,1,1455,-3
"2034",39,54,0.796867317376173,-1,3,0,0,1,968,-2
"2035",39,55,0.781105726485721,-1,1,1,1,1,247,-1
"2036",39,56,0.783830609751,NA,3,NA,NA,NA,NA,-1
"2037",39,57,0.788039555277073,-1,2,0,1,-1,1761,-2
"2038",39,58,0.883938066134498,1,1,1,1,1,862,-1
"2039",39,59,0.852604995494777,1,2,0,1,-1,1048,-2
"2040",39,60,0.87045258965668,1,1,0,1,-1,2128,-3
"2041",40,1,0.596618825961483,1,2,1,1,1,4980,-7
"2042",40,2,0.584949826295649,1,3,0,1,-1,958,-8
"2043",40,3,0.692567938031262,-1,1,1,1,1,1462,-7
"2044",40,4,0.755653615648151,-1,3,0,0,1,1894,-6
"2045",40,5,0.818582825216497,1,2,0,1,-1,1040,-7
"2046",40,6,0.769520860738283,1,1,0,0,1,1659,-6
"2047",40,7,0.883906270015593,-1,2,1,0,-1,1269,-7
"2048",40,8,0.890881244483406,1,1,1,0,-1,743,-8
"2049",40,9,0.888743933856994,1,3,1,1,1,1553,-7
"2050",40,10,0.878037503467904,1,1,1,1,1,864,-6
"2051",40,11,0.801144573624062,-1,2,1,1,1,639,-5
"2052",40,12,0.841260318096433,1,3,0,1,-1,785,-6
"2053",40,13,0.728311525747164,1,2,0,1,-1,856,-7
"2054",40,14,0.731494659530176,1,3,0,0,1,1022,-6
"2055",40,15,0.69126526895511,1,1,1,0,-1,524,-7
"2056",40,16,0.690909247406141,-1,3,0,0,1,610,-6
"2057",40,17,0.706776959279498,-1,2,0,0,1,908,-5
"2058",40,18,0.71546805435046,-1,1,0,0,1,839,-4
"2059",40,19,0.665165515896722,1,2,1,0,-1,514,-5
"2060",40,20,0.583821589812289,-1,1,1,1,1,1155,-4
"2061",40,21,0.558169454568272,1,1,1,1,1,1354,-3
"2062",40,22,0.536599545847749,1,2,1,0,-1,1324,-4
"2063",40,23,0.546664755034409,1,3,0,1,-1,1338,-5
"2064",40,24,0.439713869270279,-1,2,0,1,-1,1527,-6
"2065",40,25,0.490966100200232,1,1,1,1,1,1354,-5
"2066",40,26,0.466368604207935,-1,3,0,0,1,947,-4
"2067",40,27,0.447691035273214,NA,1,NA,NA,NA,NA,-4
"2068",40,28,0.280339155645971,1,3,1,0,-1,1443,-5
"2069",40,29,0.336067951207128,-1,2,1,0,-1,1172,-6
"2070",40,30,0.331394761739885,-1,3,0,1,-1,491,-7
"2071",40,31,0.349685650862735,1,1,1,0,-1,1070,-8
"2072",40,32,0.223309546623977,-1,2,0,1,-1,482,-9
"2073",40,33,0.167774282350531,-1,1,0,1,-1,767,-10
"2074",40,34,0.183076253548652,-1,2,1,1,1,624,-9
"2075",40,35,0.157990942382429,-1,3,0,1,-1,565,-10
"2076",40,36,0.168506279298212,-1,2,0,0,1,1016,-9
"2077",40,37,0.295302638994115,-1,1,1,0,-1,1187,-10
"2078",40,38,0.336946510041436,-1,3,1,1,1,966,-9
"2079",40,39,0.377059815288101,-1,1,1,1,1,1140,-8
"2080",40,40,0.459672018570361,-1,3,0,1,-1,862,-9
"2081",40,41,0.512534195279686,-1,3,1,0,-1,1008,-10
"2082",40,42,0.350706313604888,-1,1,0,1,-1,540,-11
