"","SubID","trial_num","pUP","stock_outcome","choice","outcome","rt","tally"
"1",1,1,0.447727736644447,1,0,-1,4573,-1
"2",1,2,0.389451833105645,-1,1,-1,515,-2
"3",1,3,0.287747842975683,-1,0,1,1217,-1
"4",1,4,0.309555029106455,-1,0,1,1581,0
"5",1,5,0.279982559220147,-1,1,-1,648,-1
"6",1,6,0.327865417843687,-1,0,1,479,0
"7",1,7,0.384504489743096,-1,0,1,802,1
"8",1,8,0.34159145017133,-1,0,1,548,2
"9",1,9,0.367779678310605,-1,0,1,449,3
"10",1,10,0.382003920459563,-1,0,1,435,4
"11",1,11,0.327623515224429,-1,0,1,1032,5
"12",1,12,0.332866252736408,-1,0,1,599,6
"13",1,13,0.193032643615463,-1,0,1,896,7
"14",1,14,0.283189425661042,-1,0,1,1324,8
"15",1,15,0.246189205037463,-1,0,1,470,9
"16",1,16,0.370042418312597,-1,0,1,319,10
"17",1,17,0.490529501021754,1,0,-1,649,9
"18",1,18,0.448448711748251,-1,1,-1,611,8
"19",1,19,0.667290144652859,-1,0,1,717,9
"20",1,20,0.762063421360521,-1,0,1,999,10
"21",1,21,0.747348720986737,1,0,-1,668,9
"22",1,22,0.664063642772098,1,1,1,1214,10
"23",1,23,0.575624178774008,1,1,1,557,11
"24",1,24,0.64905646855484,1,1,1,727,12
"25",1,25,0.704546418950932,1,1,1,540,13
"26",1,26,0.84833398524936,1,1,1,396,14
"27",1,27,0.879504225550377,1,1,1,324,15
"28",1,28,0.787461843502848,1,1,1,322,16
"29",1,29,0.777987334934392,1,1,1,574,17
"30",1,30,0.669890102211678,1,1,1,516,18
"31",1,31,0.73822261778524,-1,1,-1,379,17
"32",1,32,0.731548385649326,1,0,-1,426,16
"33",1,33,0.777332482944263,1,1,1,1222,17
"34",1,34,0.655554939359437,-1,1,-1,352,16
"35",1,35,0.636133434864666,1,0,-1,429,15
"36",1,36,0.565818390810969,1,1,1,295,16
"37",2,1,0.483392067113891,-1,1,-1,1111,-1
"38",2,2,0.45354136607983,-1,0,1,887,0
"39",2,3,0.414709640080213,1,0,-1,711,-1
"40",2,4,0.368650824407939,-1,1,-1,3458,-2
"41",2,5,0.260397152264671,-1,1,-1,1168,-3
"42",2,6,0.221005063454921,-1,0,1,472,-2
"43",2,7,0.263088381715194,-1,0,1,696,-1
"44",2,8,0.297102089817489,-1,0,1,504,0
"45",2,9,0.231295936838685,1,0,-1,536,-1
"46",2,10,0.362837839712425,-1,1,-1,337,-2
"47",2,11,0.502023179618212,-1,0,1,343,-1
"48",2,12,0.592054108590648,1,0,-1,497,-2
"49",2,13,0.563954586710955,1,1,1,288,-1
"50",2,14,0.624702831664601,-1,1,-1,416,-2
"51",2,15,0.658299810691096,-1,0,1,424,-1
"52",2,16,0.645890328535291,1,0,-1,400,-2
"53",2,17,0.543785771333283,-1,0,1,472,-1
"54",2,18,0.633938108798329,1,1,1,457,0
"55",2,19,0.622404592972301,-1,1,-1,353,-1
"56",2,20,0.725282566635056,1,1,1,320,0
"57",2,21,0.657165960322906,-1,0,1,624,1
"58",2,22,0.615471348502284,-1,1,-1,408,0
"59",2,23,0.596153175898988,-1,1,-1,280,-1
"60",2,24,0.57426484353858,-1,0,1,313,0
"61",2,25,0.474028978200615,-1,0,1,328,1
"62",2,26,0.433607182707293,-1,0,1,665,2
"63",2,27,0.457097788168271,-1,0,1,329,3
"64",2,28,0.3984667017245,1,0,-1,360,2
"65",2,29,0.421589645274868,-1,1,-1,431,1
"66",2,30,0.472178092892639,1,0,-1,361,0
"67",2,31,0.359148564739236,-1,0,1,218,1
"68",2,32,0.519210732316774,1,0,-1,528,0
"69",2,33,0.582298220815582,1,0,-1,368,-1
"70",2,34,0.621326683881038,1,1,1,256,0
"71",2,35,0.728192608358254,1,1,1,617,1
"72",2,36,0.861464185426372,-1,1,-1,496,0
"73",3,1,0.584773554792628,NA,NA,NA,NA,NA
"74",3,2,0.536848036458902,-1,1,-1,1405,-1
"75",3,3,0.562402796642635,1,0,-1,1219,-2
"76",3,4,0.653911033889958,1,1,1,607,-1
"77",3,5,0.738530881425332,1,1,1,267,0
"78",3,6,0.762270890316065,1,1,1,406,1
"79",3,7,0.766958407492117,1,1,1,193,2
"80",3,8,0.729355397170577,1,1,1,12,3
"81",3,9,0.699091555871973,1,1,1,96,4
"82",3,10,0.643122991643839,-1,1,-1,17,3
"83",3,11,0.670782558170523,1,0,-1,14,2
"84",3,12,0.701837965463023,-1,1,-1,1162,1
"85",3,13,0.659987918546889,-1,0,1,675,2
"86",3,14,0.48565113353448,1,0,-1,283,1
"87",3,15,0.45023719957444,-1,0,1,12,2
"88",3,16,0.470242835190489,1,0,-1,465,1
"89",3,17,0.36935509834393,-1,0,1,768,2
"90",3,18,0.454065308459778,1,1,1,185,3
"91",3,19,0.428156323911712,-1,0,1,391,4
"92",3,20,0.483279698360784,1,1,1,54,5
"93",3,21,0.524988469649156,1,0,-1,174,4
"94",3,22,0.55353853768791,1,1,1,171,5
"95",3,23,0.432732961607456,-1,1,-1,223,4
"96",3,24,0.407190664400279,-1,1,-1,10,3
"97",3,25,0.408737387158946,-1,0,1,376,4
"98",3,26,0.215767353681069,-1,0,1,526,5
"99",3,27,0.346166585468955,-1,0,1,144,6
"100",3,28,0.331178735340555,1,0,-1,109,5
"101",3,29,0.26701318369696,-1,1,-1,99,4
"102",3,30,0.1418605261945,-1,1,-1,151,3
"103",3,31,0.133608442565827,-1,0,1,52,4
"104",3,32,0.119399951164593,1,0,-1,419,3
"105",3,33,0.172142695577714,-1,1,-1,69,2
"106",3,34,0.32471943598572,1,0,-1,141,1
"107",3,35,0.256378026181896,-1,0,1,100,2
"108",3,36,0.374453498777782,1,0,-1,594,1
"109",4,1,0.599257051832799,1,1,1,1487,1
"110",4,2,0.556922699761463,1,1,1,547,2
"111",4,3,0.571001393983791,-1,1,-1,561,1
"112",4,4,0.511436539505697,-1,0,1,575,2
"113",4,5,0.297890581905978,-1,0,1,483,3
"114",4,6,0.327702387063294,-1,0,1,538,4
"115",4,7,0.260065615137727,1,0,-1,415,3
"116",4,8,0.237134109723955,-1,1,-1,1463,2
"117",4,9,0.390092253542414,-1,0,1,312,3
"118",4,10,0.338691831057478,1,0,-1,471,2
"119",4,11,0.27931019339248,-1,1,-1,448,1
"120",4,12,0.347017089748044,1,1,1,456,2
"121",4,13,0.320520025875941,1,1,1,501,3
"122",4,14,0.372397911431428,-1,1,-1,1057,2
"123",4,15,0.432229060754046,1,1,1,326,3
"124",4,16,0.395851152222835,1,1,1,446,4
"125",4,17,0.33343775513008,1,1,1,433,5
"126",4,18,0.322604393855828,1,1,1,611,6
"127",4,19,0.350603190186239,1,1,1,451,7
"128",4,20,0.498005848262146,1,1,1,438,8
"129",4,21,0.492899303836751,-1,1,-1,415,7
"130",4,22,0.473357700366083,1,1,1,313,8
"131",4,23,0.625543889184108,1,1,1,1027,9
"132",4,24,0.596049989208038,1,1,1,591,10
"133",4,25,0.595321942177205,1,1,1,543,11
"134",4,26,0.744891937040384,1,1,1,567,12
"135",4,27,0.734585039192907,1,1,1,576,13
"136",4,28,0.682315624292025,1,1,1,504,14
"137",4,29,0.758638391345882,-1,1,-1,378,13
"138",4,30,0.858894169392843,1,1,1,265,14
"139",4,31,0.834574827079597,1,1,1,476,15
"140",4,32,0.860005758526071,1,1,1,281,16
"141",4,33,0.847860289256463,-1,1,-1,536,15
"142",4,34,0.77836728994921,1,1,1,358,16
"143",4,35,0.784529828383344,1,1,1,490,17
"144",4,36,0.769892097883005,-1,1,-1,499,16
"145",5,1,0.559997236085471,1,1,1,2346,1
"146",5,2,0.389930066367321,-1,1,-1,714,0
"147",5,3,0.291825210582523,1,0,-1,876,-1
"148",5,4,0.357126385216516,1,1,1,797,0
"149",5,5,0.51613795733211,1,1,1,611,1
"150",5,6,0.547077403124408,1,1,1,654,2
"151",5,7,0.619196354088937,1,1,1,996,3
"152",5,8,0.617868607831917,1,1,1,780,4
"153",5,9,0.676706143895519,1,1,1,752,5
"154",5,10,0.780682132324204,1,1,1,775,6
"155",5,11,0.732450896875974,-1,0,1,697,7
"156",5,12,0.816058358458667,1,0,-1,1083,6
"157",5,13,0.839705080045403,1,1,1,906,7
"158",5,14,0.795081554639672,1,1,1,570,8
"159",5,15,0.786414299941984,1,1,1,534,9
"160",5,16,0.821785504150348,1,1,1,468,10
"161",5,17,0.712985602502264,1,1,1,650,11
"162",5,18,0.586029528515679,1,1,1,639,12
"163",5,19,0.64448182124728,-1,0,1,1235,13
"164",5,20,0.594275938248527,1,1,1,923,14
"165",5,21,0.467039176962952,1,1,1,768,15
"166",5,22,0.366674919334451,1,1,1,658,16
"167",5,23,0.466572899514078,-1,1,-1,589,15
"168",5,24,0.462581596479304,1,1,1,1228,16
"169",5,25,0.469151508511307,1,1,1,781,17
"170",5,26,0.371616733718984,-1,0,1,622,18
"171",5,27,0.437568467135852,-1,1,-1,1009,17
"172",5,28,0.360565231546116,-1,0,1,847,18
"173",5,29,0.378829847762957,1,0,-1,752,17
"174",5,30,0.424231250206803,1,1,1,601,18
"175",5,31,0.312618107644171,1,1,1,958,19
"176",5,32,0.365880978783953,1,1,1,895,20
"177",5,33,0.375480777149855,-1,1,-1,1017,19
"178",5,34,0.422746249542261,-1,1,-1,852,18
"179",5,35,0.430843709430412,-1,1,-1,557,17
"180",5,36,0.535586077598406,1,1,1,550,18
"181",6,1,0.416768140159547,1,1,1,1487,1
"182",6,2,0.307302739413285,-1,1,-1,795,0
"183",6,3,0.290487068524432,1,0,-1,644,-1
"184",6,4,0.312792196154241,1,1,1,983,0
"185",6,5,0.201690576320095,1,1,1,680,1
"186",6,6,0.254872506644486,-1,1,-1,984,0
"187",6,7,0.249286989358593,-1,0,1,1021,1
"188",6,8,0.352798927284142,-1,0,1,994,2
"189",6,9,0.490462486841805,1,0,-1,842,1
"190",6,10,0.534942524835687,-1,1,-1,441,0
"191",6,11,0.541358619199036,-1,0,1,861,1
"192",6,12,0.504724315299586,-1,0,1,968,2
"193",6,13,0.395776194856421,1,0,-1,1914,1
"194",6,14,0.492371306176607,-1,1,-1,1178,0
"195",6,15,0.449579688782876,-1,0,1,1015,1
"196",6,16,0.464389205452004,1,0,-1,33,0
"197",6,17,0.515315352474503,1,1,1,2684,1
"198",6,18,0.493094109706415,-1,1,-1,868,0
"199",6,19,0.38488445809623,-1,0,1,1068,1
"200",6,20,0.374760280576463,1,1,1,587,2
"201",6,21,0.400580246685089,1,1,1,826,3
"202",6,22,0.469208092458638,1,0,-1,857,2
"203",6,23,0.552318174427748,-1,0,1,725,3
"204",6,24,0.579356128276079,1,0,-1,640,2
"205",6,25,0.560592285259292,-1,1,-1,802,1
"206",6,26,0.534264452099342,-1,1,-1,458,0
"207",6,27,0.574303902208661,-1,1,-1,890,-1
"208",6,28,0.6254170010292,1,1,1,523,0
"209",6,29,0.659894823647296,1,1,1,1797,1
"210",6,30,0.654834322875544,-1,1,-1,830,0
"211",6,31,0.724098467088969,1,0,-1,839,-1
"212",6,32,0.795704060214672,1,1,1,852,0
"213",6,33,0.826511814128105,1,1,1,1033,1
"214",6,34,0.83043611497821,1,0,-1,787,0
"215",6,35,0.731716400364694,1,0,-1,878,-1
"216",6,36,0.836201568111719,1,1,1,861,0
"217",7,1,0.586339070369655,1,1,1,860,1
"218",7,2,0.622035639530672,-1,1,-1,645,0
"219",7,3,0.542007501590261,1,0,-1,829,-1
"220",7,4,0.665883820834369,-1,0,1,778,0
"221",7,5,0.765278261802544,1,1,1,618,1
"222",7,6,0.711965546178144,1,0,-1,640,0
"223",7,7,0.683163040573206,1,0,-1,639,-1
"224",7,8,0.58553966679006,-1,1,-1,599,-2
"225",7,9,0.559006997673741,1,0,-1,604,-3
"226",7,10,0.450668811996272,-1,1,-1,419,-4
"227",7,11,0.506960122165008,-1,1,-1,601,-5
"228",7,12,0.553989719862842,1,1,1,603,-4
"229",7,13,0.49528597018467,1,0,-1,456,-5
"230",7,14,0.404598322787844,1,0,-1,568,-6
"231",7,15,0.341153012262728,-1,1,-1,458,-7
"232",7,16,0.298294681696276,-1,0,1,582,-6
"233",7,17,0.245738017385157,1,0,-1,435,-7
"234",7,18,0.193421533173961,-1,1,-1,445,-8
"235",7,19,0.42712751746914,-1,0,1,416,-7
"236",7,20,0.57350101598482,-1,1,-1,363,-8
"237",7,21,0.512826113036792,-1,1,-1,430,-9
"238",7,22,0.572399202886843,1,1,1,328,-8
"239",7,23,0.61803962490188,1,1,1,408,-7
"240",7,24,0.621366444904672,1,0,-1,361,-8
"241",7,25,0.562636795957914,1,0,-1,460,-9
"242",7,26,0.47807218616783,-1,1,-1,353,-10
"243",7,27,0.372507789694328,-1,0,1,326,-9
"244",7,28,0.294416173644841,-1,0,1,350,-8
"245",7,29,0.278171436060736,1,0,-1,351,-9
"246",7,30,0.228946521437018,-1,1,-1,358,-10
"247",7,31,0.23264427631128,-1,1,-1,385,-11
"248",7,32,0.2707102623835,-1,0,1,406,-10
"249",7,33,0.288786788946146,-1,1,-1,386,-11
"250",7,34,0.307922063673471,-1,1,-1,486,-12
"251",7,35,0.380400443185243,-1,1,-1,677,-13
"252",7,36,0.318618839472558,-1,1,-1,727,-14
"253",8,1,0.444012149423361,-1,1,-1,2343,-1
"254",8,2,0.418886198536663,1,1,1,688,0
"255",8,3,0.34837940648127,-1,0,1,422,1
"256",8,4,0.221850009516532,-1,1,-1,399,0
"257",8,5,0.28751947160682,-1,1,-1,428,-1
"258",8,6,0.284571113046495,-1,1,-1,429,-2
"259",8,7,0.312595928590075,-1,0,1,719,-1
"260",8,8,0.207593639229312,-1,0,1,432,0
"261",8,9,0.251816690094776,-1,0,1,389,1
"262",8,10,0.332151135096392,-1,0,1,407,2
"263",8,11,0.351496446249444,-1,0,1,505,3
"264",8,12,0.342406644683639,-1,0,1,1037,4
"265",8,13,0.310493095547525,-1,0,1,588,5
"266",8,14,0.26466156750852,1,0,-1,506,4
"267",8,15,0.288774178802891,-1,1,-1,482,3
"268",8,16,0.487431359670179,1,0,-1,567,2
"269",8,17,0.464003910901247,1,0,-1,523,1
"270",8,18,0.48718976848007,-1,1,-1,346,0
"271",8,19,0.641184107519096,-1,1,-1,813,-1
"272",8,20,0.625917666078168,1,0,-1,386,-2
"273",8,21,0.596561317039775,1,1,1,370,-1
"274",8,22,0.597450111464652,1,0,-1,427,-2
"275",8,23,0.638082087104363,1,1,1,369,-1
"276",8,24,0.808000523099539,1,1,1,631,0
"277",8,25,0.85539160005754,1,1,1,735,1
"278",8,26,0.851868491207556,1,1,1,484,2
"279",8,27,0.859841252021798,1,1,1,754,3
"280",8,28,0.780533385662077,1,1,1,474,4
"281",8,29,0.708312373191903,-1,1,-1,444,3
"282",8,30,0.716190915290209,1,0,-1,352,2
"283",8,31,0.519135732535024,1,0,-1,365,1
"284",8,32,0.389150677567403,-1,1,-1,435,0
"285",8,33,0.365946004170131,-1,0,1,393,1
"286",8,34,0.428003136056632,-1,0,1,626,2
"287",8,35,0.536889471597949,-1,0,1,480,3
"288",8,36,0.508617830730837,-1,0,1,427,4
"289",9,1,0.500247798813507,1,1,1,1983,1
"290",9,2,0.441218323138777,-1,1,-1,869,0
"291",9,3,0.483341901133355,-1,0,1,493,1
"292",9,4,0.511519791245208,1,0,-1,702,0
"293",9,5,0.433043387229,1,1,1,368,1
"294",9,6,0.341970064523724,-1,1,-1,302,0
"295",9,7,0.256386942982928,-1,0,1,1194,1
"296",9,8,0.281357802392411,1,0,-1,356,0
"297",9,9,0.238283485629803,-1,1,-1,1315,-1
"298",9,10,0.237776588397387,-1,1,-1,418,-2
"299",9,11,0.32518358987747,-1,0,1,685,-1
"300",9,12,0.433985457523954,1,0,-1,823,-2
"301",9,13,0.321030682500927,-1,1,-1,742,-3
"302",9,14,0.255348010510259,-1,0,1,459,-2
"303",9,15,0.227301818181256,1,0,-1,558,-3
"304",9,16,0.247306755876851,1,0,-1,575,-4
"305",9,17,0.357186295246585,1,0,-1,655,-5
"306",9,18,0.366499785727981,1,0,-1,439,-6
"307",9,19,0.30325178979222,1,1,1,289,-5
"308",9,20,0.426809339385891,-1,1,-1,385,-6
"309",9,21,0.536024358798289,-1,0,1,3055,-5
"310",9,22,0.452039640887276,-1,0,1,341,-4
"311",9,23,0.476403146814595,-1,0,1,379,-3
"312",9,24,0.522319836994591,-1,0,1,2658,-2
"313",9,25,0.504912792436417,1,0,-1,765,-3
"314",9,26,0.458795537593938,1,1,1,520,-2
"315",9,27,0.467376426621323,-1,1,-1,702,-3
"316",9,28,0.642171265644974,1,0,-1,412,-4
"317",9,29,0.762886834159307,1,1,1,387,-3
"318",9,30,0.739696087796118,1,1,1,1244,-2
"319",9,31,0.733215494496432,1,1,1,1906,-1
"320",9,32,0.780335599846623,1,1,1,885,0
"321",9,33,0.802020694028179,1,1,1,609,1
"322",9,34,0.770405773741102,1,1,1,865,2
"323",9,35,0.778102270383836,1,1,1,594,3
"324",9,36,0.781612079607592,1,1,1,777,4
"325",11,1,0.489913050550967,1,1,1,3176,1
"326",11,2,0.528417446402766,1,1,1,1166,2
"327",11,3,0.46148719110705,-1,0,1,551,3
"328",11,4,0.499357351032533,1,0,-1,690,2
"329",11,5,0.477615502466473,-1,1,-1,667,1
"330",11,6,0.353214663761686,-1,1,-1,1525,0
"331",11,7,0.356772106534838,-1,0,1,278,1
"332",11,8,0.382322316247289,-1,0,1,1072,2
"333",11,9,0.410907868051037,-1,0,1,480,3
"334",11,10,0.305550438223462,1,0,-1,1421,2
"335",11,11,0.139859237356703,1,1,1,255,3
"336",11,12,0.143309099251531,-1,1,-1,257,2
"337",11,13,0.130774436145099,-1,0,1,252,3
"338",11,14,0.17684134578554,-1,0,1,436,4
"339",11,15,0.319559724864268,-1,0,1,261,5
"340",11,16,0.353374680659003,-1,0,1,261,6
"341",11,17,0.522222448448964,1,0,-1,255,5
"342",11,18,0.619579780501487,1,1,1,236,6
"343",11,19,0.677453383143735,-1,1,-1,303,5
"344",11,20,0.687215219369796,1,0,-1,210,4
"345",11,21,0.581075032473123,-1,1,-1,622,3
"346",11,22,0.615432680384286,1,0,-1,322,2
"347",11,23,0.632162993224879,-1,1,-1,839,1
"348",11,24,0.715109608109472,1,1,1,290,2
"349",11,25,0.724588611467562,1,1,1,329,3
"350",11,26,0.81334928991822,1,1,1,236,4
"351",11,27,0.770016123698487,1,1,1,314,5
"352",11,28,0.754713982632559,1,1,1,244,6
"353",11,29,0.739923904066718,-1,1,-1,337,5
"354",11,30,0.747909515262789,1,1,1,241,6
"355",11,31,0.560513956433546,-1,1,-1,830,5
"356",11,32,0.52122799600518,-1,0,1,271,6
"357",11,33,0.55128251801309,-1,0,1,370,7
"358",11,34,0.601013224187149,-1,0,1,432,8
"359",11,35,0.493243561151471,1,0,-1,397,7
"360",11,36,0.376092966580316,-1,1,-1,220,6
"361",12,1,0.43189335311763,NA,NA,NA,NA,NA
"362",12,2,0.454202801171221,-1,1,-1,426,-1
"363",12,3,0.540195310089082,-1,0,1,386,0
"364",12,4,0.57694252282804,1,0,-1,291,-1
"365",12,5,0.573802300901861,1,0,-1,828,-2
"366",12,6,0.492765173109367,1,1,1,272,-1
"367",12,7,0.568378266524515,1,1,1,291,0
"368",12,8,0.569653124073238,-1,1,-1,301,-1
"369",12,9,0.628090290017832,1,0,-1,310,-2
"370",12,10,0.666133082504779,-1,1,-1,299,-3
"371",12,11,0.723760114959281,1,1,1,905,-2
"372",12,12,0.809869970967066,1,1,1,3203,-1
"373",12,13,0.77235293667282,1,1,1,412,0
"374",12,14,0.77423733711733,1,1,1,574,1
"375",12,15,0.787502438531975,1,1,1,699,2
"376",12,16,0.748494418278434,-1,1,-1,303,1
"377",12,17,0.618918392159651,1,1,1,513,2
"378",12,18,0.595104749531923,1,1,1,336,3
"379",12,19,0.430961038237437,-1,1,-1,279,2
"380",12,20,0.487459538339339,1,1,1,268,3
"381",12,21,0.478796134746082,-1,1,-1,356,2
"382",12,22,0.447672532600122,1,1,1,331,3
"383",12,23,0.493584159018502,-1,1,-1,252,2
"384",12,24,0.538428319860531,1,1,1,274,3
"385",12,25,0.446123704882796,1,1,1,238,4
"386",12,26,0.41724957541971,-1,1,-1,310,3
"387",12,27,0.297984705812025,-1,1,-1,250,2
"388",12,28,0.211511924855362,1,0,-1,830,1
"389",12,29,0.239511859541754,-1,1,-1,216,0
"390",12,30,0.303352679692856,-1,1,-1,302,-1
"391",12,31,0.349632519817377,1,0,-1,960,-2
"392",12,32,0.329015677457914,1,1,1,326,-1
"393",12,33,0.264391278452709,-1,1,-1,297,-2
"394",12,34,0.228600394566063,-1,1,-1,232,-3
"395",12,35,0.271713897356916,-1,1,-1,239,-4
"396",12,36,0.267177385803618,1,1,1,124,-3
"397",13,1,0.531522392807528,NA,NA,NA,NA,NA
"398",13,2,0.51528360164984,1,1,1,2243,1
"399",13,3,0.530257399386578,-1,1,-1,1031,0
"400",13,4,0.573389541921923,1,0,-1,2031,-1
"401",13,5,0.523390302281858,1,1,1,895,0
"402",13,6,0.527299855935914,-1,1,-1,1008,-1
"403",13,7,0.484755751679504,1,1,1,992,0
"404",13,8,0.350777534256845,-1,1,-1,920,-1
"405",13,9,0.344086156398783,1,0,-1,1391,-2
"406",13,10,0.2847972808099,1,1,1,609,-1
"407",13,11,0.152779814240869,-1,1,-1,591,-2
"408",13,12,0.170479918659535,-1,0,1,1656,-1
"409",13,13,0.178456234029355,-1,1,-1,1599,-2
"410",13,14,0.208809494960947,-1,0,1,1328,-1
"411",13,15,0.205763567120416,-1,0,1,927,0
"412",13,16,0.134562807292148,1,0,-1,1176,-1
"413",13,17,0.179835948469924,-1,1,-1,703,-2
"414",13,18,0.201765732905135,-1,1,-1,712,-3
"415",13,19,0.269554878629644,-1,0,1,1311,-2
"416",13,20,0.344249135541458,-1,0,1,743,-1
"417",13,21,0.327792217558519,-1,0,1,606,0
"418",13,22,0.361022613387364,-1,0,1,738,1
"419",13,23,0.505574835448765,1,0,-1,703,0
"420",13,24,0.547291877848258,1,1,1,720,1
"421",13,25,0.710916469611766,-1,1,-1,775,0
"422",13,26,0.731333793772157,1,0,-1,1057,-1
"423",13,27,0.764609031697221,-1,1,-1,774,-2
"424",13,28,0.857111083870537,-1,1,-1,2856,-3
"425",13,29,0.795813201748284,1,0,-1,1505,-4
"426",13,30,0.748366220226321,1,1,1,727,-3
"427",13,31,0.747972464435743,1,1,1,695,-2
"428",13,32,0.736319361345941,NA,NA,NA,NA,NA
"429",13,33,0.574917485668729,NA,NA,NA,NA,NA
"430",13,34,0.608836081487612,NA,NA,NA,NA,NA
"431",13,35,0.702670472294306,NA,NA,NA,NA,NA
"432",13,36,0.740424766196232,1,0,-1,2001,-3
"433",14,1,0.53892691899091,-1,1,-1,1894,-1
"434",14,2,0.649096635799715,1,0,-1,695,-2
"435",14,3,0.698596222426895,-1,1,-1,706,-3
"436",14,4,0.717517783821488,-1,0,1,536,-2
"437",14,5,0.736469141917081,-1,0,1,582,-1
"438",14,6,0.777036241285761,-1,0,1,519,0
"439",14,7,0.847430827042502,1,0,-1,386,-1
"440",14,8,0.751369431836996,1,1,1,863,0
"441",14,9,0.684968495018626,-1,1,-1,358,-1
"442",14,10,0.666978615295295,-1,0,1,404,0
"443",14,11,0.662044272980091,1,0,-1,606,-1
"444",14,12,0.59980828185756,1,1,1,259,0
"445",14,13,0.620407477809369,1,1,1,288,1
"446",14,14,0.684164431255647,1,1,1,355,2
"447",14,15,0.595677887416414,1,1,1,402,3
"448",14,16,0.580668648498142,-1,1,-1,365,2
"449",14,17,0.658651410167736,1,0,-1,319,1
"450",14,18,0.564353199578161,-1,1,-1,275,0
"451",14,19,0.520488001581377,1,0,-1,370,-1
"452",14,20,0.54076745170222,1,0,-1,293,-2
"453",14,21,0.532155779536699,1,1,1,301,-1
"454",14,22,0.467068249515114,-1,1,-1,544,-2
"455",14,23,0.38311223698547,-1,0,1,336,-1
"456",14,24,0.388266572760884,-1,0,1,388,0
"457",14,25,0.366596003963053,1,0,-1,727,-1
"458",14,26,0.333477846161932,1,0,-1,282,-2
"459",14,27,0.444049097019966,-1,1,-1,246,-3
"460",14,28,0.365642699396851,1,0,-1,464,-4
"461",14,29,0.261377238037268,-1,1,-1,40,-5
"462",14,30,0.297629420002547,1,1,1,288,-4
"463",14,31,0.346252068486485,-1,1,-1,595,-5
"464",14,32,0.332105445537864,-1,0,1,296,-4
"465",14,33,0.283179563069274,-1,0,1,440,-3
"466",14,34,0.315561030883464,-1,0,1,600,-2
"467",14,35,0.178657529317638,1,0,-1,612,-3
"468",14,36,0.164225712560822,-1,1,-1,876,-4
"469",15,1,0.535534316441044,1,1,1,917,1
"470",15,2,0.57616375003076,1,1,1,364,2
"471",15,3,0.565749830185761,1,1,1,526,3
"472",15,4,0.539545701543168,-1,1,-1,380,2
"473",15,5,0.616212307219215,1,0,-1,322,1
"474",15,6,0.550449531211948,-1,1,-1,347,0
"475",15,7,0.61375089922818,1,1,1,325,1
"476",15,8,0.535449605321796,-1,1,-1,316,0
"477",15,9,0.525821714339114,1,1,1,297,1
"478",15,10,0.677283906662071,1,0,-1,320,0
"479",15,11,0.773815767647679,1,1,1,285,1
"480",15,12,0.711585837124397,-1,1,-1,243,0
"481",15,13,0.579643622745484,1,1,1,8,1
"482",15,14,0.595831829695739,1,1,1,301,2
"483",15,15,0.507902153248063,1,1,1,468,3
"484",15,16,0.564607541465108,1,1,1,282,4
"485",15,17,0.6373260622035,1,1,1,303,5
"486",15,18,0.563789630998416,-1,1,-1,304,4
"487",15,19,0.653942384855764,-1,1,-1,273,3
"488",15,20,0.652667323823286,1,0,-1,433,2
"489",15,21,0.555689841967456,1,1,1,278,3
"490",15,22,0.427845149987806,1,1,1,322,4
"491",15,23,0.470675610289125,-1,1,-1,308,3
"492",15,24,0.452983804448743,1,1,1,1391,4
"493",15,25,0.416654547542423,1,1,1,950,5
"494",15,26,0.290777563489032,-1,1,-1,789,4
"495",15,27,0.172377866685379,-1,1,-1,307,3
"496",15,28,0.126756844810213,-1,0,1,1063,4
"497",15,29,0.194411977228003,-1,0,1,1233,5
"498",15,30,0.236675201556679,-1,0,1,1434,6
"499",15,31,0.321934992509802,-1,0,1,480,7
"500",15,32,0.348144556662445,-1,0,1,614,8
"501",15,33,0.433327726586234,1,0,-1,487,7
"502",15,34,0.416884962675342,1,0,-1,300,6
"503",15,35,0.289556142081378,1,1,1,249,7
"504",15,36,0.232302491240115,-1,1,-1,343,6
"505",16,1,0.576008042599751,-1,1,-1,2509,-1
"506",16,2,0.628051768709836,-1,0,1,1548,0
"507",16,3,0.713879095396276,1,0,-1,370,-1
"508",16,4,0.794264676086234,1,0,-1,440,-2
"509",16,5,0.817053854493877,1,0,-1,341,-3
"510",16,6,0.764017370158566,1,0,-1,190,-4
"511",16,7,0.615301014731829,-1,1,-1,86,-5
"512",16,8,0.614928171288528,1,0,-1,213,-6
"513",16,9,0.664149613206192,1,1,1,1113,-5
"514",16,10,0.768086326042796,1,1,1,398,-4
"515",16,11,0.866566485128462,1,1,1,170,-3
"516",16,12,0.888662321161698,1,1,1,168,-2
"517",16,13,0.705886337630575,1,1,1,228,-1
"518",16,14,0.617182222744591,1,1,1,9,0
"519",16,15,0.572669689366473,-1,1,-1,44,-1
"520",16,16,0.533142598523524,1,1,1,138,0
"521",16,17,0.496880940445488,-1,1,-1,704,-1
"522",16,18,0.531034414090422,1,1,1,374,0
"523",16,19,0.431556772788997,-1,1,-1,493,-1
"524",16,20,0.449161657195505,1,1,1,747,0
"525",16,21,0.408688406074216,-1,1,-1,346,-1
"526",16,22,0.419645655139122,-1,1,-1,274,-2
"527",16,23,0.387688486582945,-1,0,1,12,-1
"528",16,24,0.461756043342293,1,0,-1,35,-2
"529",16,25,0.405045859362262,-1,0,1,85,-1
"530",16,26,0.275318948225456,-1,0,1,156,0
"531",16,27,0.329471121600696,-1,0,1,111,1
"532",16,28,0.318347755347215,-1,0,1,165,2
"533",16,29,0.296791488118817,1,0,-1,167,1
"534",16,30,0.310377345141775,-1,0,1,179,2
"535",16,31,0.282215321390815,1,0,-1,130,1
"536",16,32,0.200697458804672,-1,0,1,26,2
"537",16,33,0.195510427491027,-1,0,1,110,3
"538",16,34,0.124752822266597,-1,0,1,36,4
"539",16,35,0.26978068454998,-1,0,1,153,5
"540",16,36,0.267774971659839,1,0,-1,113,4
"541",17,1,0.528402726816823,1,1,1,1961,1
"542",17,2,0.561050516659383,1,1,1,589,2
"543",17,3,0.514589457768558,-1,1,-1,539,1
"544",17,4,0.488832490944002,1,0,-1,624,0
"545",17,5,0.535804243362734,-1,1,-1,954,-1
"546",17,6,0.38014997921253,-1,0,1,564,0
"547",17,7,0.311260906124418,1,0,-1,540,-1
"548",17,8,0.287895019926174,-1,1,-1,701,-2
"549",17,9,0.316698331057297,-1,0,1,590,-1
"550",17,10,0.25006468448649,-1,1,-1,480,-2
"551",17,11,0.434811005442307,1,1,1,887,-1
"552",17,12,0.599986355784891,-1,1,-1,531,-2
"553",17,13,0.60019268237364,1,0,-1,501,-3
"554",17,14,0.771908550159557,1,1,1,544,-2
"555",17,15,0.782862045644493,1,1,1,568,-1
"556",17,16,0.683575106733985,1,0,-1,635,-2
"557",17,17,0.687136301416285,-1,0,1,1121,-1
"558",17,18,0.674101460948523,1,0,-1,597,-2
"559",17,19,0.660258328641542,-1,1,-1,622,-3
"560",17,20,0.664157054434949,1,0,-1,2289,-4
"561",17,21,0.515321795152521,1,1,1,954,-3
"562",17,22,0.464719513940021,1,0,-1,752,-4
"563",17,23,0.396379624481427,-1,0,1,722,-3
"564",17,24,0.370614868004011,-1,0,1,899,-2
"565",17,25,0.271968448305515,-1,1,-1,547,-3
"566",17,26,0.294427507370034,-1,1,-1,477,-4
"567",17,27,0.161499730127163,-1,1,-1,503,-5
"568",17,28,0.335279144511541,-1,1,-1,783,-6
"569",17,29,0.280803289229845,-1,0,1,1463,-5
"570",17,30,0.346039839869723,-1,0,1,586,-4
"571",17,31,0.463458654143789,-1,0,1,653,-3
"572",17,32,0.456694271985374,1,0,-1,699,-4
"573",17,33,0.529741964219347,1,1,1,496,-3
"574",17,34,0.501953368743633,1,1,1,846,-2
"575",17,35,0.582346139437716,-1,1,-1,500,-3
"576",17,36,0.510298491894448,-1,0,1,3616,-2
"577",18,1,0.576770009938627,1,1,1,1549,1
"578",18,2,0.476531592649749,1,1,1,893,2
"579",18,3,0.501670206438759,1,1,1,668,3
"580",18,4,0.543590845592357,-1,1,-1,796,2
"581",18,5,0.373330318627831,-1,0,1,441,3
"582",18,6,0.369657715063905,1,0,-1,295,2
"583",18,7,0.458872406164747,1,1,1,232,3
"584",18,8,0.624148643344444,-1,1,-1,359,2
"585",18,9,0.795815291715385,1,0,-1,291,1
"586",18,10,0.686362079668123,-1,1,-1,417,0
"587",18,11,0.672557979381254,-1,1,-1,293,-1
"588",18,12,0.623966398848762,1,1,1,596,0
"589",18,13,0.529313855868821,1,1,1,294,1
"590",18,14,0.576192813235902,-1,1,-1,1046,0
"591",18,15,0.585111856977281,-1,1,-1,1216,-1
"592",18,16,0.629653432428054,1,1,1,913,0
"593",18,17,0.602544876295483,-1,1,-1,662,-1
"594",18,18,0.618262195740875,1,1,1,1528,0
"595",18,19,0.597431824397404,-1,0,1,1521,1
"596",18,20,0.57996809415587,-1,1,-1,975,0
"597",18,21,0.518844343198374,1,0,-1,1584,-1
"598",18,22,0.518964486666203,-1,1,-1,880,-2
"599",18,23,0.469888013430896,-1,1,-1,839,-3
"600",18,24,0.348722614340645,-1,1,-1,1072,-4
"601",18,25,0.267137244013863,1,1,1,1114,-3
"602",18,26,0.262632822030295,-1,1,-1,1237,-4
"603",18,27,0.280974486365795,-1,1,-1,3736,-5
"604",18,28,0.280355146514225,-1,1,-1,1669,-6
"605",18,29,0.415185428272202,-1,0,1,1933,-5
"606",18,30,0.38574655906252,1,1,1,1522,-4
"607",18,31,0.390486635057553,-1,1,-1,2560,-5
"608",18,32,0.342806035676944,-1,1,-1,1176,-6
"609",18,33,0.308397104121129,1,0,-1,447,-7
"610",18,34,0.200015497590255,-1,0,1,1393,-6
"611",18,35,0.160376054789953,-1,0,1,416,-5
"612",18,36,0.147516829308037,-1,1,-1,375,-6
"613",19,1,0.599963113199919,1,1,1,4116,1
"614",19,2,0.633377555195884,1,1,1,1032,2
"615",19,3,0.570811708037251,-1,1,-1,602,1
"616",19,4,0.562868490056132,1,0,-1,380,0
"617",19,5,0.582597883465401,1,1,1,502,1
"618",19,6,0.650268973220423,1,1,1,643,2
"619",19,7,0.704951767986445,1,1,1,330,3
"620",19,8,0.782866200722857,1,1,1,329,4
"621",19,9,0.804555897111408,-1,1,-1,295,3
"622",19,10,0.77118598525901,1,0,-1,361,2
"623",19,11,0.850764611927109,1,1,1,388,3
"624",19,12,0.747748337873015,1,1,1,609,4
"625",19,13,0.740444054225778,1,1,1,720,5
"626",19,14,0.691431689979939,-1,1,-1,550,4
"627",19,15,0.640454569980956,-1,1,-1,664,3
"628",19,16,0.635424477308394,-1,1,-1,425,2
"629",19,17,0.530849644051581,1,0,-1,323,1
"630",19,18,0.486701892512093,-1,1,-1,488,0
"631",19,19,0.455700142484988,1,0,-1,356,-1
"632",19,20,0.333386584669005,-1,0,1,828,0
"633",19,21,0.253440794414309,-1,0,1,384,1
"634",19,22,0.294255413030899,-1,0,1,521,2
"635",19,23,0.312932471747137,-1,1,-1,860,1
"636",19,24,0.31081059541917,-1,0,1,375,2
"637",19,25,0.319588474747977,-1,0,1,675,3
"638",19,26,0.364249869290719,-1,0,1,1033,4
"639",19,27,0.46396788463412,-1,0,1,1063,5
"640",19,28,0.345093086004285,-1,0,1,924,6
"641",19,29,0.339384219316757,1,0,-1,1249,5
"642",19,30,0.325503965092276,-1,0,1,702,6
"643",19,31,0.302945812006916,1,0,-1,411,5
"644",19,32,0.367982221274897,1,1,1,458,6
"645",19,33,0.477871065957492,1,1,1,304,7
"646",19,34,0.498131164378571,1,1,1,299,8
"647",19,35,0.495985678242088,1,1,1,281,9
"648",19,36,0.420415628523066,-1,1,-1,265,8
"649",20,1,0.537999164918438,NA,NA,NA,NA,NA
"650",20,2,0.533972762461159,1,1,1,1599,1
"651",20,3,0.655548109292898,-1,1,-1,671,0
"652",20,4,0.620303166362897,1,1,1,1191,1
"653",20,5,0.636127360575853,1,0,-1,1425,0
"654",20,6,0.662063503499993,-1,1,-1,514,-1
"655",20,7,0.739664621093181,-1,0,1,923,0
"656",20,8,0.839020354683929,-1,1,-1,1126,-1
"657",20,9,0.72647275879834,1,1,1,1245,0
"658",20,10,0.776111634059105,1,1,1,842,1
"659",20,11,0.723744339260311,1,1,1,433,2
"660",20,12,0.680067460280571,1,1,1,322,3
"661",20,13,0.654451087666222,1,1,1,340,4
"662",20,14,0.624804150694052,1,0,-1,245,3
"663",20,15,0.451185614931891,-1,1,-1,191,2
"664",20,16,0.375828943660811,-1,0,1,243,3
"665",20,17,0.442761118398474,-1,0,1,150,4
"666",20,18,0.482481501823525,-1,1,-1,66,3
"667",20,19,0.476576460179884,-1,1,-1,308,2
"668",20,20,0.465388936123884,1,0,-1,863,1
"669",20,21,0.508884125578829,-1,1,-1,284,0
"670",20,22,0.592942893171633,-1,1,-1,297,-1
"671",20,23,0.531159052658595,1,0,-1,234,-2
"672",20,24,0.439944021949954,-1,1,-1,13,-3
"673",20,25,0.356606390552942,-1,0,1,166,-2
"674",20,26,0.268644595658174,-1,0,1,292,-1
"675",20,27,0.257636711430545,1,0,-1,138,-2
"676",20,28,0.173533743187699,-1,1,-1,169,-3
"677",20,29,0.222001594382315,-1,0,1,303,-2
"678",20,30,0.159417063351353,-1,0,1,222,-1
"679",20,31,0.230293532367993,1,0,-1,272,-2
"680",20,32,0.236324672998414,-1,1,-1,189,-3
"681",20,33,0.222446140302819,-1,0,1,243,-2
"682",20,34,0.298758395072168,-1,0,1,280,-1
"683",20,35,0.344788044707024,1,0,-1,187,-2
"684",20,36,0.362883660021873,1,0,-1,583,-3
"685",21,1,0.464531323406845,1,1,1,870,1
"686",21,2,0.473090249186202,1,1,1,735,2
"687",21,3,0.385145134469628,-1,1,-1,1382,1
"688",21,4,0.335641615705569,1,0,-1,1441,0
"689",21,5,0.257625903184609,1,0,-1,1678,-1
"690",21,6,0.180746306073289,-1,1,-1,1677,-2
"691",21,7,0.201137816443904,-1,0,1,1517,-1
"692",21,8,0.179737623937728,-1,1,-1,2391,-2
"693",21,9,0.459503884133675,1,1,1,343,-1
"694",21,10,0.386753794726013,-1,1,-1,872,-2
"695",21,11,0.507655185588633,1,0,-1,634,-3
"696",21,12,0.649423280067786,1,0,-1,434,-4
"697",21,13,0.600580540681988,-1,1,-1,463,-5
"698",21,14,0.536159465405264,1,1,1,38,-4
"699",21,15,0.422097268872276,-1,1,-1,297,-5
"700",21,16,0.410900015477357,1,0,-1,212,-6
"701",21,17,0.442343195465831,1,0,-1,601,-7
"702",21,18,0.503759870188297,1,1,1,463,-6
"703",21,19,0.469243262840417,-1,0,1,288,-5
"704",21,20,0.464213555190288,1,0,-1,315,-6
"705",21,21,0.423800087613314,-1,1,-1,206,-7
"706",21,22,0.433124105967552,-1,1,-1,741,-8
"707",21,23,0.398060316633511,1,1,1,178,-7
"708",21,24,0.439845169069575,1,1,1,594,-6
"709",21,25,0.489912510533784,1,0,-1,265,-7
"710",21,26,0.508061873378782,1,1,1,81,-6
"711",21,27,0.622947928752361,1,1,1,67,-5
"712",21,28,0.601370614299215,-1,0,1,341,-4
"713",21,29,0.822867751938809,-1,0,1,594,-3
"714",21,30,0.866881993536448,1,1,1,311,-2
"715",21,31,0.852721210303102,1,1,1,154,-1
"716",21,32,0.631646382921262,1,0,-1,717,-2
"717",21,33,0.614602050371399,1,0,-1,638,-3
"718",21,34,0.587415048742657,1,1,1,380,-2
"719",21,35,0.683426333745654,1,1,1,89,-1
"720",21,36,0.531992408094969,-1,1,-1,446,-2
"721",22,1,0.594516094680876,-1,1,-1,2418,-1
"722",22,2,0.544358169712349,1,0,-1,597,-2
"723",22,3,0.562736296456992,1,1,1,385,-1
"724",22,4,0.533773566012519,1,1,1,489,0
"725",22,5,0.431704643274181,-1,1,-1,526,-1
"726",22,6,0.657372483997834,1,1,1,567,0
"727",22,7,0.779551207083123,1,0,-1,625,-1
"728",22,8,0.797365513653083,1,0,-1,455,-2
"729",22,9,0.810996318637951,1,1,1,2451,-1
"730",22,10,0.777990008699477,1,1,1,695,0
"731",22,11,0.822189544223021,1,1,1,502,1
"732",22,12,0.861969966942047,1,0,-1,455,0
"733",22,13,0.838745716250748,1,1,1,548,1
"734",22,14,0.825681155055059,1,1,1,489,2
"735",22,15,0.707997218837805,1,0,-1,561,1
"736",22,16,0.688929419065639,-1,1,-1,407,0
"737",22,17,0.713470458366853,-1,1,-1,418,-1
"738",22,18,0.759434722859047,-1,0,1,428,0
"739",22,19,0.563297180995673,-1,0,1,641,1
"740",22,20,0.551765176639182,-1,0,1,1057,2
"741",22,21,0.538209070758614,-1,1,-1,1344,1
"742",22,22,0.495549814318145,1,0,-1,401,0
"743",22,23,0.450884963885269,1,1,1,1180,1
"744",22,24,0.424893667552956,-1,1,-1,463,0
"745",22,25,0.396192980841941,-1,1,-1,364,-1
"746",22,26,0.301461522289954,-1,0,1,381,0
"747",22,27,0.278971680821009,1,0,-1,400,-1
"748",22,28,0.21122249025408,-1,1,-1,453,-2
"749",22,29,0.227229137643649,-1,0,1,415,-1
"750",22,30,0.122537756280079,-1,0,1,584,0
"751",22,31,0.144456697901895,-1,1,-1,798,-1
"752",22,32,0.15654320369066,-1,1,-1,519,-2
"753",22,33,0.143264118293734,-1,1,-1,421,-3
"754",22,34,0.198446355214441,-1,0,1,504,-2
"755",22,35,0.241538965765478,-1,0,1,375,-1
"756",22,36,0.21421414841194,-1,0,1,512,0
"757",23,1,0.489180650698432,-1,1,-1,532,-1
"758",23,2,0.513915782390587,-1,1,-1,357,-2
"759",23,3,0.659285432708267,1,1,1,586,-1
"760",23,4,0.579523084348429,-1,1,-1,425,-2
"761",23,5,0.548098635147404,-1,1,-1,497,-3
"762",23,6,0.61918948788855,-1,1,-1,460,-4
"763",23,7,0.524980978024728,1,1,1,477,-3
"764",23,8,0.6146753186731,1,0,-1,468,-4
"765",23,9,0.580021589419148,-1,0,1,661,-3
"766",23,10,0.618495367950738,1,0,-1,485,-4
"767",23,11,0.604293714661822,1,1,1,53,-3
"768",23,12,0.61279225734639,1,1,1,424,-2
"769",23,13,0.658247052744667,-1,0,1,476,-1
"770",23,14,0.550085460036556,1,1,1,1103,0
"771",23,15,0.532584580293866,1,1,1,687,1
"772",23,16,0.644014996329556,1,1,1,784,2
"773",23,17,0.59846857375007,1,0,-1,433,1
"774",23,18,0.645768813929302,-1,0,1,385,2
"775",23,19,0.628257049463785,-1,1,-1,900,1
"776",23,20,0.621413884148777,-1,0,1,581,2
"777",23,21,0.529199919307311,-1,0,1,397,3
"778",23,22,0.621610131646826,-1,0,1,589,4
"779",23,23,0.620040977771252,1,1,1,105,5
"780",23,24,0.579495129174551,1,1,1,570,6
"781",23,25,0.475265608793054,-1,0,1,17,7
"782",23,26,0.501144313321458,1,0,-1,494,6
"783",23,27,0.39621426085317,-1,1,-1,425,5
"784",23,28,0.326876048025525,-1,1,-1,460,4
"785",23,29,0.460117793471166,-1,1,-1,536,3
"786",23,30,0.335556144672913,1,1,1,530,4
"787",23,31,0.320498173533013,-1,1,-1,412,3
"788",23,32,0.215310049130565,-1,0,1,379,4
"789",23,33,0.154512368940717,-1,0,1,383,5
"790",23,34,0.15677726935589,1,1,1,431,6
"791",23,35,0.19640176177144,-1,0,1,265,7
"792",23,36,0.278233514999615,-1,0,1,701,8
"793",24,1,0.556063725773001,-1,1,-1,1245,-1
"794",24,2,0.595091770252545,-1,0,1,505,0
"795",24,3,0.482254959788016,-1,0,1,422,1
"796",24,4,0.496193172649057,-1,0,1,296,2
"797",24,5,0.364975672708763,-1,0,1,286,3
"798",24,6,0.486940600262744,1,0,-1,279,2
"799",24,7,0.50972670957163,1,1,1,326,3
"800",24,8,0.529764203560678,-1,1,-1,278,2
"801",24,9,0.480027415371662,1,0,-1,262,1
"802",24,10,0.281902380158554,-1,0,1,181,2
"803",24,11,0.27293531285494,-1,0,1,183,3
"804",24,12,0.205887109786332,1,0,-1,223,2
"805",24,13,0.155669334207154,-1,0,1,135,3
"806",24,14,0.133436495811182,-1,0,1,295,4
"807",24,15,0.112146877322811,-1,0,1,262,5
"808",24,16,0.220173122975253,1,0,-1,182,4
"809",24,17,0.222179870625141,1,0,-1,111,3
"810",24,18,0.374421594971045,-1,1,-1,319,2
"811",24,19,0.463429357659343,-1,0,1,269,3
"812",24,20,0.445991348854966,1,0,-1,279,2
"813",24,21,0.479162828319365,1,0,-1,174,1
"814",24,22,0.429229694747797,-1,1,-1,238,0
"815",24,23,0.519340737735111,-1,0,1,127,1
"816",24,24,0.576758461892529,1,0,-1,200,0
"817",24,25,0.520729011930718,1,1,1,526,1
"818",24,26,0.564516711461632,1,0,-1,278,0
"819",24,27,0.510247373643437,-1,1,-1,326,-1
"820",24,28,0.46661231711723,-1,0,1,263,0
"821",24,29,0.464999910589109,-1,0,1,407,1
"822",24,30,0.52944870399347,1,0,-1,207,0
"823",24,31,0.617653139798733,1,1,1,238,1
"824",24,32,0.640364777756771,1,1,1,284,2
"825",24,33,0.718413157566616,1,0,-1,296,1
"826",24,34,0.59275339780398,1,0,-1,327,0
"827",24,35,0.659992518805087,1,1,1,326,1
"828",24,36,0.590635541588726,1,1,1,223,2
"829",25,1,0.50924447090365,1,1,1,1834,1
"830",25,2,0.50417880472608,-1,1,-1,549,0
"831",25,3,0.523560527781709,1,1,1,1090,1
"832",25,4,0.575215478667887,1,1,1,574,2
"833",25,5,0.574001219941534,-1,1,-1,552,1
"834",25,6,0.551493971273894,-1,0,1,632,2
"835",25,7,0.554914140140359,-1,1,-1,831,1
"836",25,8,0.498623639146974,1,1,1,480,2
"837",25,9,0.444860564993944,1,1,1,675,3
"838",25,10,0.459261737479294,1,1,1,536,4
"839",25,11,0.628144187765464,1,0,-1,63,3
"840",25,12,0.6459232377387,1,1,1,1056,4
"841",25,13,0.653574366370328,1,1,1,454,5
"842",25,14,0.649689194950382,-1,1,-1,560,4
"843",25,15,0.538586258865315,-1,0,1,436,5
"844",25,16,0.60497522153796,1,0,-1,678,4
"845",25,17,0.601001599055013,1,1,1,586,5
"846",25,18,0.749610188973612,1,0,-1,612,4
"847",25,19,0.659626203501254,1,1,1,623,5
"848",25,20,0.733588533418233,-1,1,-1,576,4
"849",25,21,0.58470955305753,-1,0,1,904,5
"850",25,22,0.575261477565014,-1,0,1,967,6
"851",25,23,0.542298605486061,1,1,1,575,7
"852",25,24,0.605764614733705,-1,1,-1,511,6
"853",25,25,0.54037772849057,-1,0,1,1315,7
"854",25,26,0.576836754859973,1,0,-1,701,6
"855",25,27,0.530231962752826,1,1,1,722,7
"856",25,28,0.31626334729279,1,1,1,602,8
"857",25,29,0.287199450692039,1,1,1,440,9
"858",25,30,0.26213688514509,-1,0,1,479,10
"859",25,31,0.137221863287121,-1,0,1,631,11
"860",25,32,0.130158458888036,-1,1,-1,680,10
"861",25,33,0.186949984679504,-1,1,-1,639,9
"862",25,34,0.141577025092497,-1,1,-1,1050,8
"863",25,35,0.170623133234116,-1,0,1,864,9
"864",25,36,0.279402904867999,1,1,1,544,10
"865",26,1,0.564224923960865,NA,NA,NA,NA,NA
"866",26,2,0.64366576054464,1,1,1,460,1
"867",26,3,0.536045789212287,-1,1,-1,1334,0
"868",26,4,0.502036852521823,1,1,1,1431,1
"869",26,5,0.500773456319537,-1,1,-1,470,0
"870",26,6,0.549291893994161,1,0,-1,687,-1
"871",26,7,0.461385921991292,1,0,-1,760,-2
"872",26,8,0.577980231897055,-1,1,-1,441,-3
"873",26,9,0.656791041266974,1,1,1,1363,-2
"874",26,10,0.696717754586145,-1,1,-1,453,-3
"875",26,11,0.654679834147951,1,0,-1,399,-4
"876",26,12,0.639449844579132,-1,0,1,439,-3
"877",26,13,0.647252462129083,1,0,-1,761,-4
"878",26,14,0.763315683587039,-1,1,-1,427,-5
"879",26,15,0.741583085241987,1,0,-1,471,-6
"880",26,16,0.76918252660768,1,1,1,492,-5
"881",26,17,0.747988871902989,1,1,1,320,-4
"882",26,18,0.758851982084885,-1,1,-1,507,-5
"883",26,19,0.610111543494878,1,0,-1,386,-6
"884",26,20,0.647022962426194,1,1,1,421,-5
"885",26,21,0.631552758198313,1,1,1,523,-4
"886",26,22,0.461306385423291,-1,1,-1,557,-5
"887",26,23,0.435833034062619,1,1,1,427,-4
"888",26,24,0.394594444028731,-1,1,-1,445,-5
"889",26,25,0.375735253272275,-1,1,-1,314,-6
"890",26,26,0.379857718701941,-1,0,1,613,-5
"891",26,27,0.305441707506576,1,0,-1,350,-6
"892",26,28,0.186940142928995,-1,0,1,480,-5
"893",26,29,0.239741348329467,-1,0,1,547,-4
"894",26,30,0.255067407985676,-1,0,1,543,-3
"895",26,31,0.224241032796736,-1,0,1,343,-2
"896",26,32,0.337246389702946,-1,0,1,412,-1
"897",26,33,0.359322604641754,-1,0,1,347,0
"898",26,34,0.383929309480355,1,0,-1,506,-1
"899",26,35,0.380067037088205,-1,0,1,505,0
"900",26,36,0.356382521532861,1,0,-1,379,-1
"901",27,1,0.461925971042365,1,1,1,2648,1
"902",27,2,0.522535989736553,-1,0,1,2017,2
"903",27,3,0.45195311311293,-1,1,-1,1763,1
"904",27,4,0.510450376234662,1,0,-1,1516,0
"905",27,5,0.468968581610845,1,1,1,421,1
"906",27,6,0.400619900764217,-1,1,-1,697,0
"907",27,7,0.542413190563683,1,0,-1,366,-1
"908",27,8,0.416726390569449,-1,1,-1,630,-2
"909",27,9,0.344816784839177,-1,1,-1,258,-3
"910",27,10,0.37927328497336,1,1,1,1018,-2
"911",27,11,0.440735000131878,-1,1,-1,572,-3
"912",27,12,0.54941215307193,-1,1,-1,1192,-4
"913",27,13,0.617663447227941,1,1,1,1640,-3
"914",27,14,0.766739233634355,1,1,1,398,-2
"915",27,15,0.771234589652456,1,0,-1,993,-3
"916",27,16,0.769313551917138,1,0,-1,514,-4
"917",27,17,0.741523029878396,-1,1,-1,355,-5
"918",27,18,0.658612309411325,1,0,-1,449,-6
"919",27,19,0.722187941013834,-1,1,-1,417,-7
"920",27,20,0.667086084666326,-1,1,-1,1034,-8
"921",27,21,0.584756848760979,-1,1,-1,3726,-9
"922",27,22,0.544735719368008,1,1,1,359,-8
"923",27,23,0.478132457080831,-1,1,-1,401,-9
"924",27,24,0.451324843325673,1,0,-1,385,-10
"925",27,25,0.441606232314652,-1,0,1,403,-9
"926",27,26,0.323585815840659,1,0,-1,439,-10
"927",27,27,0.307796605537151,-1,1,-1,490,-11
"928",27,28,0.332315768992518,1,0,-1,859,-12
"929",27,29,0.219753571295425,-1,1,-1,1413,-13
"930",27,30,0.302759005519806,1,0,-1,1247,-14
"931",27,31,0.24281561133922,1,1,1,737,-13
"932",27,32,0.269182924409537,-1,1,-1,913,-14
"933",27,33,0.385825904246512,-1,1,-1,1512,-15
"934",27,34,0.402225601993252,1,0,-1,599,-16
"935",27,35,0.425327478364367,-1,1,-1,725,-17
"936",27,36,0.552522912338766,1,1,1,1752,-16
"937",28,1,0.444157275604084,1,1,1,4220,1
"938",28,2,0.486426295935247,1,1,1,2517,2
"939",28,3,0.607916940348218,1,1,1,2609,3
"940",28,4,0.536737021601507,-1,1,-1,2234,2
"941",28,5,0.563970842876483,-1,0,1,3364,3
"942",28,6,0.606693225798169,1,0,-1,3030,2
"943",28,7,0.65943579655693,-1,1,-1,570,1
"944",28,8,0.660995777502524,-1,1,-1,812,0
"945",28,9,0.661603057634527,NA,NA,NA,NA,NA
"946",28,10,0.598972186392552,1,1,1,3188,1
"947",28,11,0.633691216282017,1,1,1,2236,2
"948",28,12,0.471040079714843,-1,0,1,1361,3
"949",28,13,0.470235707661968,1,0,-1,906,2
"950",28,14,0.584999217927088,1,1,1,1327,3
"951",28,15,0.487263679116336,1,0,-1,3859,2
"952",28,16,0.558617698122515,1,1,1,532,3
"953",28,17,0.53845366379938,1,1,1,2204,4
"954",28,18,0.524445109113165,1,0,-1,39,3
"955",28,19,0.441736938370142,-1,0,1,2576,4
"956",28,20,0.509240445842471,1,0,-1,1483,3
"957",28,21,0.610758915223209,1,1,1,1719,4
"958",28,22,0.596575362434468,-1,1,-1,1425,3
"959",28,23,0.606408063482834,-1,0,1,323,4
"960",28,24,0.642572974340577,1,0,-1,547,3
"961",28,25,0.592525850726824,1,1,1,1094,4
"962",28,26,0.503813997273475,1,1,1,968,5
"963",28,27,0.532565690307163,1,1,1,227,6
"964",28,28,0.435421979593697,-1,1,-1,3438,5
"965",28,29,0.310805059410575,-1,0,1,2328,6
"966",28,30,0.298722677059103,1,0,-1,1452,5
"967",28,31,0.275402475650058,-1,1,-1,1078,4
"968",28,32,0.205048054288564,-1,1,-1,645,3
"969",28,33,0.183459420517128,-1,1,-1,723,2
"970",28,34,0.101239418442316,-1,1,-1,42,1
"971",28,35,0.177052021454661,-1,1,-1,376,0
"972",28,36,0.231995336273468,-1,0,1,468,1
"973",29,1,0.564180433936417,-1,1,-1,1857,-1
"974",29,2,0.563342109704906,-1,0,1,2421,0
"975",29,3,0.559960024164082,-1,1,-1,616,-1
"976",29,4,0.623600653206156,1,0,-1,311,-2
"977",29,5,0.662674614686394,1,1,1,1094,-1
"978",29,6,0.673014910834877,1,1,1,279,0
"979",29,7,0.687412049385913,1,0,-1,1704,-1
"980",29,8,0.687508271061531,-1,1,-1,302,-2
"981",29,9,0.735101451172952,1,0,-1,151,-3
"982",29,10,0.617665858938816,1,0,-1,511,-4
"983",29,11,0.724720239348971,1,1,1,351,-3
"984",29,12,0.774214522677131,1,1,1,30,-2
"985",29,13,0.848371823885549,1,1,1,71,-1
"986",29,14,0.742410518806804,1,0,-1,1039,-2
"987",29,15,0.669190176000529,1,1,1,342,-1
"988",29,16,0.62799539573156,1,1,1,288,0
"989",29,17,0.538386893638456,-1,1,-1,295,-1
"990",29,18,0.522698822476194,NA,NA,NA,NA,NA
"991",29,19,0.450477404689127,1,0,-1,612,-2
"992",29,20,0.428644318603903,1,1,1,880,-1
"993",29,21,0.423896976478922,-1,1,-1,582,-2
"994",29,22,0.393116539893997,1,1,1,591,-1
"995",29,23,0.445444901810229,-1,1,-1,463,-2
"996",29,24,0.356192084625321,-1,1,-1,343,-3
"997",29,25,0.492009287574572,-1,0,1,271,-2
"998",29,26,0.474219198079267,1,0,-1,319,-3
"999",29,27,0.301480347806864,-1,1,-1,23,-4
"1000",29,28,0.166656258965758,-1,1,-1,295,-5
"1001",29,29,0.185670226968348,-1,1,-1,1327,-6
"1002",29,30,0.174284395345781,-1,0,1,239,-5
"1003",29,31,0.169983851107541,-1,0,1,310,-4
"1004",29,32,0.159232858087547,-1,0,1,408,-3
"1005",29,33,0.1935761391895,-1,1,-1,303,-4
"1006",29,34,0.161862868672884,1,1,1,302,-3
"1007",29,35,0.250716905395984,-1,1,-1,318,-4
"1008",29,36,0.28557461954985,-1,0,1,271,-3
"1009",30,1,0.568285294063389,-1,1,-1,1832,-1
"1010",30,2,0.535079397262077,-1,0,1,845,0
"1011",30,3,0.526219589358891,-1,0,1,248,1
"1012",30,4,0.46222140415575,-1,0,1,331,2
"1013",30,5,0.501183231043219,-1,0,1,574,3
"1014",30,6,0.651755731479131,-1,0,1,898,4
"1015",30,7,0.704754841739695,1,0,-1,551,3
"1016",30,8,0.676976997519178,1,1,1,254,4
"1017",30,9,0.643328105405693,1,1,1,1146,5
"1018",30,10,0.583491874503168,1,1,1,1124,6
"1019",30,11,0.669689234770231,1,1,1,3833,7
"1020",30,12,0.46118281937893,-1,1,-1,786,6
"1021",30,13,0.309093992791986,1,0,-1,910,5
"1022",30,14,0.252803550724695,-1,1,-1,664,4
"1023",30,15,0.243643128506337,-1,1,-1,442,3
"1024",30,16,0.14772133868898,-1,0,1,458,4
"1025",30,17,0.190649311047255,-1,0,1,1082,5
"1026",30,18,0.175606902423789,-1,0,1,2346,6
"1027",30,19,0.229901168991352,-1,0,1,332,7
"1028",30,20,0.157761904688254,1,0,-1,307,6
"1029",30,21,0.188183446823221,1,1,1,62,7
"1030",30,22,0.308410161075738,-1,1,-1,410,6
"1031",30,23,0.277988458015667,-1,1,-1,284,5
"1032",30,24,0.217384338970737,1,0,-1,398,4
"1033",30,25,0.415163767538939,1,1,1,552,5
"1034",30,26,0.451655018168437,-1,1,-1,351,4
"1035",30,27,0.499512532431559,1,1,1,595,5
"1036",30,28,0.574188059888818,-1,1,-1,16,4
"1037",30,29,0.563219492930326,1,1,1,566,5
"1038",30,30,0.633719639086226,-1,1,-1,338,4
"1039",30,31,0.662962565837106,1,1,1,263,5
"1040",30,32,0.698494854697714,-1,1,-1,268,4
"1041",30,33,0.741561554831446,1,1,1,495,5
"1042",30,34,0.649272155465811,-1,1,-1,565,4
"1043",30,35,0.6116217106569,1,1,1,439,5
"1044",30,36,0.61541730170803,1,0,-1,271,4
"1045",31,1,0.464523048093542,-1,1,-1,1804,-1
"1046",31,2,0.547285265299649,1,0,-1,932,-2
"1047",31,3,0.522734630891946,1,1,1,685,-1
"1048",31,4,0.496199852433504,1,1,1,912,0
"1049",31,5,0.612562387110566,1,1,1,655,1
"1050",31,6,0.567117160243821,1,1,1,815,2
"1051",31,7,0.582019686669235,-1,1,-1,1442,1
"1052",31,8,0.512356749235172,-1,0,1,604,2
"1053",31,9,0.520434391899204,1,0,-1,654,1
"1054",31,10,0.452204637938986,-1,1,-1,624,0
"1055",31,11,0.544723733257103,1,0,-1,654,-1
"1056",31,12,0.501516010415788,1,1,1,655,0
"1057",31,13,0.464050531365299,1,1,1,1263,1
"1058",31,14,0.461951281455282,1,1,1,1712,2
"1059",31,15,0.552071465990093,-1,1,-1,687,1
"1060",31,16,0.498758669092084,1,0,-1,558,0
"1061",31,17,0.515697613707732,-1,1,-1,560,-1
"1062",31,18,0.53698322080992,1,1,1,1071,0
"1063",31,19,0.645675150891284,-1,1,-1,815,-1
"1064",31,20,0.644424017918402,1,0,-1,526,-2
"1065",31,21,0.754723750874506,-1,1,-1,2063,-3
"1066",31,22,0.821961143872321,1,1,1,559,-2
"1067",31,23,0.727718345699713,1,1,1,1007,-1
"1068",31,24,0.784369610376213,1,1,1,944,0
"1069",31,25,0.708790962667435,1,1,1,848,1
"1070",31,26,0.639685517958279,-1,1,-1,943,0
"1071",31,27,0.602993594228798,1,0,-1,686,-1
"1072",31,28,0.572211430379067,1,1,1,943,0
"1073",31,29,0.578608502209723,-1,1,-1,1070,-1
"1074",31,30,0.572834357858193,-1,0,1,527,0
"1075",31,31,0.476870532906795,-1,0,1,527,1
"1076",31,32,0.337199772704846,-1,1,-1,558,0
"1077",31,33,0.261591969963711,1,0,-1,655,-1
"1078",31,34,0.194589988996993,-1,1,-1,558,-2
"1079",31,35,0.170680666000257,-1,1,-1,552,-3
"1080",31,36,0.110145451166123,-1,1,-1,431,-4
"1081",32,1,0.453188444809768,-1,1,-1,2262,-1
"1082",32,2,0.392042958213765,1,1,1,2628,0
"1083",32,3,0.423629336965685,-1,0,1,822,1
"1084",32,4,0.432877277254846,-1,0,1,677,2
"1085",32,5,0.418985536602302,1,1,1,690,3
"1086",32,6,0.303477406003183,-1,0,1,470,4
"1087",32,7,0.303404815271993,-1,0,1,588,5
"1088",32,8,0.278789687696562,-1,0,1,961,6
"1089",32,9,0.244632833326018,1,0,-1,1044,5
"1090",32,10,0.258559890554342,-1,1,-1,500,4
"1091",32,11,0.365561461852053,1,1,1,595,5
"1092",32,12,0.409892826317781,-1,1,-1,2222,4
"1093",32,13,0.391989829640073,-1,1,-1,451,3
"1094",32,14,0.406314765367498,-1,1,-1,272,2
"1095",32,15,0.333759345775846,1,1,1,157,3
"1096",32,16,0.392351225329331,1,1,1,285,4
"1097",32,17,0.398631283026342,-1,0,1,387,5
"1098",32,18,0.417193373774842,1,0,-1,745,4
"1099",32,19,0.572101193205274,1,0,-1,241,3
"1100",32,20,0.597836323529129,-1,0,1,301,4
"1101",32,21,0.651648552271861,1,0,-1,427,3
"1102",32,22,0.702560759851935,1,0,-1,1252,2
"1103",32,23,0.71148050879885,1,0,-1,306,1
"1104",32,24,0.723922591396658,1,0,-1,413,0
"1105",32,25,0.693335962305489,1,1,1,82,1
"1106",32,26,0.698024985201842,-1,0,1,741,2
"1107",32,27,0.546219913077528,1,0,-1,1344,1
"1108",32,28,0.550227524700557,1,1,1,373,2
"1109",32,29,0.541429810245697,-1,1,-1,353,1
"1110",32,30,0.648137245645289,1,1,1,725,2
"1111",32,31,0.639120392117966,-1,1,-1,687,1
"1112",32,32,0.57579026139457,-1,1,-1,342,0
"1113",32,33,0.669107829041915,-1,1,-1,564,-1
"1114",32,34,0.652043881766046,1,1,1,325,0
"1115",32,35,0.680594646404196,-1,0,1,763,1
"1116",32,36,0.706755747831621,-1,0,1,392,2
"1117",33,1,0.45835307125945,1,1,1,967,1
"1118",33,2,0.57525368985524,-1,1,-1,566,0
"1119",33,3,0.601525138821115,-1,0,1,647,1
"1120",33,4,0.531781716797261,-1,0,1,454,2
"1121",33,5,0.518506332793327,-1,1,-1,614,1
"1122",33,6,0.532363553318469,1,0,-1,503,0
"1123",33,7,0.457342054913852,1,1,1,347,1
"1124",33,8,0.354331320882246,-1,1,-1,300,0
"1125",33,9,0.303064000767975,-1,0,1,366,1
"1126",33,10,0.242007879364853,-1,1,-1,358,0
"1127",33,11,0.202731423088151,1,1,1,384,1
"1128",33,12,0.180740236952775,-1,1,-1,549,0
"1129",33,13,0.133330312302835,1,0,-1,590,-1
"1130",33,14,0.155113179099591,-1,0,1,395,0
"1131",33,15,0.252007400377383,1,1,1,406,1
"1132",33,16,0.328959929790056,-1,1,-1,362,0
"1133",33,17,0.380665848874045,-1,0,1,559,1
"1134",33,18,0.447092927172643,1,1,1,316,2
"1135",33,19,0.520131909676041,-1,0,1,407,3
"1136",33,20,0.420736734449763,1,0,-1,306,2
"1137",33,21,0.454251804105099,-1,0,1,478,3
"1138",33,22,0.49377318981955,1,1,1,343,4
"1139",33,23,0.470278140783509,-1,1,-1,855,3
"1140",33,24,0.480210033589531,1,1,1,551,4
"1141",33,25,0.471537095323366,1,0,-1,344,3
"1142",33,26,0.545153337006629,-1,0,1,326,4
"1143",33,27,0.459826925660552,-1,0,1,511,5
"1144",33,28,0.552957252668812,1,1,1,591,6
"1145",33,29,0.654974567520254,1,1,1,631,7
"1146",33,30,0.60172877272347,1,0,-1,503,6
"1147",33,31,0.684921038766652,1,0,-1,359,5
"1148",33,32,0.668508237189317,-1,1,-1,510,4
"1149",33,33,0.691074026935842,1,0,-1,528,3
"1150",33,34,0.640655997920325,-1,1,-1,533,2
"1151",33,35,0.586723881806353,-1,1,-1,927,1
"1152",33,36,0.47482777910318,-1,1,-1,902,0
"1153",34,1,0.492036137031391,NA,NA,NA,NA,NA
"1154",34,2,0.345741848036537,1,0,-1,2872,-1
"1155",34,3,0.312267120927637,-1,0,1,1455,0
"1156",34,4,0.388931537267662,-1,1,-1,816,-1
"1157",34,5,0.229332273514525,-1,0,1,776,0
"1158",34,6,0.193026264865325,-1,0,1,544,1
"1159",34,7,0.193081116200534,-1,1,-1,601,0
"1160",34,8,0.214061509161193,1,0,-1,240,-1
"1161",34,9,0.262697128046557,-1,1,-1,680,-2
"1162",34,10,0.201242327621969,-1,0,1,465,-1
"1163",34,11,0.310162838685103,1,0,-1,264,-2
"1164",34,12,0.271089492718921,-1,0,1,281,-1
"1165",34,13,0.475989214393044,-1,0,1,271,0
"1166",34,14,0.54234396133234,-1,0,1,273,1
"1167",34,15,0.426619775079999,1,1,1,407,2
"1168",34,16,0.439110368066567,-1,0,1,826,3
"1169",34,17,0.514018805222018,-1,0,1,1288,4
"1170",34,18,0.517795725854271,1,0,-1,278,3
"1171",34,19,0.565292675039847,1,0,-1,817,2
"1172",34,20,0.472869272653461,1,1,1,480,3
"1173",34,21,0.489237687574711,1,1,1,785,4
"1174",34,22,0.540346861527989,1,0,-1,1600,3
"1175",34,23,0.568714434744522,-1,0,1,416,4
"1176",34,24,0.609144138095167,-1,0,1,439,5
"1177",34,25,0.659684385284643,1,0,-1,1121,4
"1178",34,26,0.594259539558475,1,0,-1,4236,3
"1179",34,27,0.610063726653756,-1,1,-1,829,2
"1180",34,28,0.686068566923313,1,0,-1,1048,1
"1181",34,29,0.706560820539179,-1,0,1,2977,2
"1182",34,30,0.586071806823478,1,0,-1,232,1
"1183",34,31,0.65337319166985,1,1,1,248,2
"1184",34,32,0.680444504374877,1,0,-1,1056,1
"1185",34,33,0.760832456443221,-1,0,1,1263,2
"1186",34,34,0.643992036666696,-1,1,-1,585,1
"1187",34,35,0.63535848514726,1,1,1,1088,2
"1188",34,36,0.662078648669831,1,1,1,249,3
"1189",35,1,0.550133521389216,-1,0,1,4255,1
"1190",35,2,0.596042180150149,-1,0,1,2791,2
"1191",35,3,0.667340233791123,1,0,-1,479,1
"1192",35,4,0.748077627046191,1,1,1,687,2
"1193",35,5,0.705981015559337,1,1,1,623,3
"1194",35,6,0.705802043443475,1,1,1,296,4
"1195",35,7,0.685999743080535,1,1,1,416,5
"1196",35,8,0.731435390342512,1,1,1,303,6
"1197",35,9,0.711460566768867,-1,1,-1,487,5
"1198",35,10,0.595679460274598,1,0,-1,206,4
"1199",35,11,0.483444744771155,-1,0,1,528,5
"1200",35,12,0.547494989033713,-1,0,1,776,6
"1201",35,13,0.494130348545066,1,0,-1,656,5
"1202",35,14,0.37026623849177,-1,1,-1,784,4
"1203",35,15,0.327994826935368,-1,0,1,889,5
"1204",35,16,0.323909065311233,1,0,-1,831,4
"1205",35,17,0.489797893196075,-1,1,-1,1656,3
"1206",35,18,0.543817642582484,-1,1,-1,592,2
"1207",35,19,0.639215776353926,1,0,-1,486,1
"1208",35,20,0.621795720589527,1,0,-1,729,0
"1209",35,21,0.576771774313362,1,1,1,344,1
"1210",35,22,0.493858111227142,-1,1,-1,423,0
"1211",35,23,0.556567267699694,-1,0,1,759,1
"1212",35,24,0.627686540247566,1,0,-1,319,0
"1213",35,25,0.675874821447282,-1,1,-1,3847,-1
"1214",35,26,0.669526999236862,-1,0,1,640,0
"1215",35,27,0.536518543133652,1,0,-1,513,-1
"1216",35,28,0.520710820859137,-1,1,-1,575,-2
"1217",35,29,0.488166759518438,1,0,-1,384,-3
"1218",35,30,0.440502628033883,-1,1,-1,608,-4
"1219",35,31,0.278729321322266,-1,0,1,623,-3
"1220",35,32,0.191071483959776,-1,0,1,255,-2
"1221",35,33,0.281479754841894,-1,0,1,328,-1
"1222",35,34,0.25737708417126,-1,0,1,935,0
"1223",35,35,0.170279161500717,1,0,-1,345,-1
"1224",35,36,0.130275425857626,-1,1,-1,328,-2
"1225",36,1,0.595182937656066,-1,1,-1,1730,-1
"1226",36,2,0.553374035381657,-1,0,1,626,0
"1227",36,3,0.468789123575792,1,0,-1,936,-1
"1228",36,4,0.629732865239066,1,1,1,849,0
"1229",36,5,0.711667787689481,1,1,1,845,1
"1230",36,6,0.782293839418125,1,0,-1,688,0
"1231",36,7,0.817943643144054,1,0,-1,679,-1
"1232",36,8,0.850905931716024,1,0,-1,633,-2
"1233",36,9,0.790213009092277,1,0,-1,734,-3
"1234",36,10,0.735952563451521,-1,1,-1,410,-4
"1235",36,11,0.898460742879454,1,0,-1,590,-5
"1236",36,12,0.714621679912252,1,1,1,507,-4
"1237",36,13,0.613709143936983,1,1,1,564,-3
"1238",36,14,0.572522197341001,-1,1,-1,635,-4
"1239",36,15,0.546525610114262,1,0,-1,391,-5
"1240",36,16,0.508272454832485,1,1,1,353,-4
"1241",36,17,0.411482407255476,1,1,1,448,-3
"1242",36,18,0.285734684887271,-1,1,-1,600,-4
"1243",36,19,0.264197678268687,-1,1,-1,460,-5
"1244",36,20,0.316314408268012,-1,0,1,407,-4
"1245",36,21,0.265235555205186,-1,0,1,743,-3
"1246",36,22,0.349041069229002,-1,0,1,671,-2
"1247",36,23,0.337922422411116,-1,0,1,425,-1
"1248",36,24,0.407852611018822,-1,0,1,470,0
"1249",36,25,0.327090075178738,1,0,-1,495,-1
"1250",36,26,0.288335051190044,-1,1,-1,536,-2
"1251",36,27,0.421672542744418,1,1,1,600,-1
"1252",36,28,0.423994622838336,1,1,1,357,0
"1253",36,29,0.447070571779253,-1,1,-1,403,-1
"1254",36,30,0.560328691130042,-1,0,1,375,0
"1255",36,31,0.610837009198228,1,0,-1,442,-1
"1256",36,32,0.585770086458092,-1,1,-1,451,-2
"1257",36,33,0.585173123675815,-1,1,-1,417,-3
"1258",36,34,0.535296642017017,1,0,-1,609,-4
"1259",36,35,0.559815624115706,-1,1,-1,388,-5
"1260",36,36,0.443949341057879,-1,0,1,365,-4
"1261",37,1,0.527819544402882,1,0,-1,2022,-1
"1262",37,2,0.693696693329622,-1,0,1,841,0
"1263",37,3,0.632845977906293,1,1,1,949,1
"1264",37,4,0.497859999024676,-1,0,1,49,2
"1265",37,5,0.492989133429054,1,1,1,492,3
"1266",37,6,0.518439813321051,-1,0,1,531,4
"1267",37,7,0.520070973907896,1,1,1,824,5
"1268",37,8,0.501896769115021,1,0,-1,1838,4
"1269",37,9,0.371675192196304,1,0,-1,769,3
"1270",37,10,0.293373060468886,-1,0,1,693,4
"1271",37,11,0.326493044647011,1,1,1,1329,5
"1272",37,12,0.451029063225225,1,1,1,2982,6
"1273",37,13,0.655547480316819,1,0,-1,627,5
"1274",37,14,0.647578303500167,1,0,-1,664,4
"1275",37,15,0.702086492184414,-1,0,1,465,5
"1276",37,16,0.690534073323075,1,0,-1,808,4
"1277",37,17,0.713136739246338,1,1,1,587,5
"1278",37,18,0.694676864046304,1,1,1,746,6
"1279",37,19,0.699987676436547,-1,0,1,1022,7
"1280",37,20,0.627423416212472,1,1,1,758,8
"1281",37,21,0.573283941491659,-1,1,-1,2762,7
"1282",37,22,0.385044770574636,-1,0,1,136,8
"1283",37,23,0.459219124915605,1,1,1,1109,9
"1284",37,24,0.390755696949403,1,0,-1,2018,8
"1285",37,25,0.434731464021905,1,0,-1,298,7
"1286",37,26,0.461547255537394,1,0,-1,530,6
"1287",37,27,0.513127486631476,-1,0,1,604,7
"1288",37,28,0.366501819217234,1,1,1,1433,8
"1289",37,29,0.290179765773925,-1,1,-1,1171,7
"1290",37,30,0.264001068763733,-1,1,-1,840,6
"1291",37,31,0.159751638848952,-1,0,1,880,7
"1292",37,32,0.185162928691019,-1,1,-1,686,6
"1293",37,33,0.155932327925913,-1,1,-1,589,5
"1294",37,34,0.169727717304892,-1,0,1,888,6
"1295",37,35,0.146617500058152,-1,0,1,665,7
"1296",37,36,0.144977034802782,-1,0,1,762,8
"1297",38,1,0.486450216919184,-1,1,-1,1465,-1
"1298",38,2,0.532772645219816,1,0,-1,624,-2
"1299",38,3,0.515930891759177,-1,1,-1,595,-3
"1300",38,4,0.523726459567595,-1,1,-1,490,-4
"1301",38,5,0.559800737987179,1,1,1,360,-3
"1302",38,6,0.513484709685261,-1,1,-1,683,-4
"1303",38,7,0.476567132835224,-1,0,1,625,-3
"1304",38,8,0.500302667568017,-1,1,-1,984,-4
"1305",38,9,0.538520419842258,1,1,1,51,-3
"1306",38,10,0.516901850409082,-1,0,1,581,-2
"1307",38,11,0.52965942494333,1,0,-1,423,-3
"1308",38,12,0.493294432950445,-1,1,-1,2369,-4
"1309",38,13,0.444620350662295,1,0,-1,669,-5
"1310",38,14,0.466726988863364,1,0,-1,423,-6
"1311",38,15,0.250746566300667,1,0,-1,438,-7
"1312",38,16,0.218081132909268,-1,0,1,776,-6
"1313",38,17,0.280883154869325,-1,0,1,792,-5
"1314",38,18,0.182409910859479,-1,1,-1,549,-6
"1315",38,19,0.108311146146388,-1,0,1,407,-5
"1316",38,20,0.103980903938349,1,1,1,526,-4
"1317",38,21,0.218936279541133,-1,1,-1,1012,-5
"1318",38,22,0.281118597889273,1,0,-1,1410,-6
"1319",38,23,0.332590039245846,1,0,-1,640,-7
"1320",38,24,0.321882565632805,-1,1,-1,1588,-8
"1321",38,25,0.388578781816506,-1,0,1,563,-7
"1322",38,26,0.374174774892011,-1,0,1,330,-6
"1323",38,27,0.393441944376802,1,0,-1,289,-7
"1324",38,28,0.533608840527877,1,1,1,357,-6
"1325",38,29,0.564759052194007,-1,1,-1,673,-7
"1326",38,30,0.613098183779695,-1,0,1,254,-6
"1327",38,31,0.646836919350381,1,0,-1,579,-7
"1328",38,32,0.67384732096178,1,1,1,154,-6
"1329",38,33,0.720064837437103,1,0,-1,299,-7
"1330",38,34,0.772803926395339,-1,0,1,49,-6
"1331",38,35,0.79033010124042,1,0,-1,348,-7
"1332",38,36,0.838372188211506,1,1,1,370,-6
"1333",39,1,0.467569114620909,1,1,1,869,1
"1334",39,2,0.505029298049282,1,1,1,840,2
"1335",39,3,0.597280430007532,1,1,1,385,3
"1336",39,4,0.633686512513763,1,1,1,2366,4
"1337",39,5,0.72637162816771,1,1,1,1083,5
"1338",39,6,0.823708608284599,1,1,1,737,6
"1339",39,7,0.830793034961803,1,1,1,498,7
"1340",39,8,0.754774522254818,1,1,1,489,8
"1341",39,9,0.776907283297296,1,1,1,613,9
"1342",39,10,0.752303613294788,1,1,1,657,10
"1343",39,11,0.883361644488535,-1,1,-1,403,9
"1344",39,12,0.881497432967019,1,0,-1,438,8
"1345",39,13,0.727295718794944,1,1,1,391,9
"1346",39,14,0.705958607859332,1,1,1,536,10
"1347",39,15,0.673933207745955,1,1,1,349,11
"1348",39,16,0.643794897077459,-1,1,-1,395,10
"1349",39,17,0.514614266338667,1,1,1,614,11
"1350",39,18,0.408287863315132,1,1,1,515,12
"1351",39,19,0.481953045687972,-1,1,-1,407,11
"1352",39,20,0.496172294065624,-1,1,-1,342,10
"1353",39,21,0.539308865901849,-1,1,-1,402,9
"1354",39,22,0.510781287279277,-1,0,1,302,10
"1355",39,23,0.508849829666144,-1,0,1,366,11
"1356",39,24,0.481026194082351,-1,0,1,398,12
"1357",39,25,0.277770105884668,-1,0,1,485,13
"1358",39,26,0.186652902485022,-1,0,1,366,14
"1359",39,27,0.128999809552632,-1,0,1,342,15
"1360",39,28,0.127636436520914,-1,0,1,335,16
"1361",39,29,0.23228893570822,-1,0,1,803,17
"1362",39,30,0.148521077372147,-1,0,1,399,18
"1363",39,31,0.322519044697525,-1,0,1,529,19
"1364",39,32,0.318461783266217,1,0,-1,335,18
"1365",39,33,0.316864239779042,-1,0,1,631,19
"1366",39,34,0.242888105884972,1,0,-1,442,18
"1367",39,35,0.299788378682317,-1,1,-1,300,17
"1368",39,36,0.227744920380492,-1,1,-1,397,16
"1369",40,1,0.523367186170071,1,1,1,1655,1
"1370",40,2,0.427376405864691,-1,1,-1,451,0
"1371",40,3,0.413157377488796,1,0,-1,589,-1
"1372",40,4,0.3518623068246,-1,1,-1,1328,-2
"1373",40,5,0.341347158357857,-1,1,-1,521,-3
"1374",40,6,0.32237611731321,-1,0,1,443,-2
"1375",40,7,0.379108860595649,-1,0,1,571,-1
"1376",40,8,0.332773592722551,1,0,-1,452,-2
"1377",40,9,0.193651182472426,-1,1,-1,1562,-3
"1378",40,10,0.122912355843576,-1,0,1,518,-2
"1379",40,11,0.231416787207102,-1,0,1,452,-1
"1380",40,12,0.444249637895471,-1,0,1,534,0
"1381",40,13,0.427788202781155,1,0,-1,766,-1
"1382",40,14,0.448343985536168,-1,0,1,381,0
"1383",40,15,0.492325402041242,1,0,-1,467,-1
"1384",40,16,0.536746680763696,1,0,-1,399,-2
"1385",40,17,0.4550138925158,-1,0,1,372,-1
"1386",40,18,0.564671691233682,-1,0,1,465,0
"1387",40,19,0.621658220162709,-1,0,1,534,1
"1388",40,20,0.553430278226582,-1,0,1,604,2
"1389",40,21,0.478814779781459,1,0,-1,884,1
"1390",40,22,0.511262060397543,1,0,-1,453,0
"1391",40,23,0.565562206761136,1,0,-1,369,-1
"1392",40,24,0.614037753151435,1,0,-1,751,-2
"1393",40,25,0.603941977080072,-1,1,-1,521,-3
"1394",40,26,0.615214676608961,1,0,-1,391,-4
"1395",40,27,0.688681288687941,1,1,1,348,-3
"1396",40,28,0.739443029974565,-1,1,-1,1314,-4
"1397",40,29,0.748055708984071,1,0,-1,443,-5
"1398",40,30,0.738046370431868,1,0,-1,451,-6
"1399",40,31,0.702607760583555,-1,1,-1,523,-7
"1400",40,32,0.82695496424558,1,0,-1,462,-8
"1401",40,33,0.78671735680905,1,1,1,738,-7
"1402",40,34,0.860901856017499,1,1,1,1248,-6
"1403",40,35,0.844691517284581,1,0,-1,469,-7
"1404",40,36,0.653304756932535,1,1,1,430,-6
"1405",41,1,0.448307424411178,-1,0,1,2896,1
"1406",41,2,0.495157172549592,1,0,-1,664,0
"1407",41,3,0.500399243568037,-1,0,1,741,1
"1408",41,4,0.593666350757667,-1,0,1,2580,2
"1409",41,5,0.453695254983923,-1,0,1,734,3
"1410",41,6,0.417100172663898,-1,0,1,1438,4
"1411",41,7,0.455225360799089,1,0,-1,181,3
"1412",41,8,0.463101474141207,1,1,1,2739,4
"1413",41,9,0.522884701959233,-1,1,-1,1613,3
"1414",41,10,0.404071934140562,-1,0,1,2555,4
"1415",41,11,0.510022722646393,1,0,-1,2298,3
"1416",41,12,0.411973811252079,1,1,1,2174,4
"1417",41,13,0.286713507066496,-1,1,-1,1813,3
"1418",41,14,0.28121380372799,-1,0,1,2861,4
"1419",41,15,0.259004629518359,-1,0,1,1722,5
"1420",41,16,0.255579844474239,-1,0,1,1676,6
"1421",41,17,0.220029056340226,-1,0,1,2450,7
"1422",41,18,0.355276947769927,-1,0,1,1222,8
"1423",41,19,0.507518495447837,1,1,1,1664,9
"1424",41,20,0.542619940633764,-1,1,-1,2158,8
"1425",41,21,0.657582491914186,-1,1,-1,4109,7
"1426",41,22,0.553923151584798,-1,0,1,1689,8
"1427",41,23,0.700186265177556,1,0,-1,2659,7
"1428",41,24,0.764961456353746,1,1,1,2049,8
"1429",41,25,0.689723104101057,1,1,1,1311,9
"1430",41,26,0.644987408197375,1,1,1,2002,10
"1431",41,27,0.679496633632112,-1,1,-1,3254,9
"1432",41,28,0.705943079462811,1,0,-1,1579,8
"1433",41,29,0.736398668663216,1,1,1,1892,9
"1434",41,30,0.617772651520792,1,1,1,2437,10
"1435",41,31,0.645760691656827,-1,1,-1,1934,9
"1436",41,32,0.695428686634668,1,1,1,1048,10
"1437",41,33,0.754125438892147,1,1,1,2851,11
"1438",41,34,0.729825707951274,1,1,1,2065,12
"1439",41,35,0.771785829210695,-1,1,-1,2316,11
"1440",41,36,0.817751040507915,1,0,-1,901,10
"1441",42,1,0.522702038055286,1,1,1,1441,1
"1442",42,2,0.554166658924826,1,1,1,679,2
"1443",42,3,0.62704722099536,-1,1,-1,502,1
"1444",42,4,0.605114071178702,-1,0,1,348,2
"1445",42,5,0.687293009231398,-1,0,1,574,3
"1446",42,6,0.63087248921137,1,0,-1,411,2
"1447",42,7,0.722001611142254,-1,1,-1,220,1
"1448",42,8,0.746606264883215,-1,0,1,335,2
"1449",42,9,0.78414330069854,1,0,-1,258,1
"1450",42,10,0.829038191579138,1,1,1,198,2
"1451",42,11,0.739292666246255,1,1,1,231,3
"1452",42,12,0.602039090528602,-1,1,-1,232,2
"1453",42,13,0.657077421193983,1,0,-1,400,1
"1454",42,14,0.525180089572156,-1,1,-1,350,0
"1455",42,15,0.718302440665072,1,0,-1,353,-1
"1456",42,16,0.628414924483436,1,0,-1,396,-2
"1457",42,17,0.594905493868718,1,1,1,375,-1
"1458",42,18,0.599200816065621,1,1,1,312,0
"1459",42,19,0.649954542963402,-1,1,-1,481,-1
"1460",42,20,0.516458325621199,1,0,-1,434,-2
"1461",42,21,0.465407470508398,-1,1,-1,242,-3
"1462",42,22,0.405353574761458,-1,1,-1,805,-4
"1463",42,23,0.326256105941629,-1,0,1,300,-3
"1464",42,24,0.316143283951957,1,0,-1,441,-4
"1465",42,25,0.312932659568982,1,1,1,237,-3
"1466",42,26,0.335483210173826,-1,1,-1,392,-4
"1467",42,27,0.205072021947967,-1,0,1,364,-3
"1468",42,28,0.123823849291961,-1,0,1,709,-2
"1469",42,29,0.104889688798704,-1,1,-1,770,-3
"1470",42,30,0.154898869018913,-1,0,1,329,-2
"1471",42,31,0.209059330154111,-1,0,1,497,-1
"1472",42,32,0.205317757131317,1,0,-1,455,-2
"1473",42,33,0.171535615544728,-1,1,-1,298,-3
"1474",42,34,0.131979494107405,-1,0,1,350,-2
"1475",42,35,0.13881373422233,1,0,-1,361,-3
"1476",42,36,0.194286237851625,-1,1,-1,570,-4
"1477",43,1,0.511999130249023,-1,1,-1,2396,-1
"1478",43,2,0.466393165620434,-1,0,1,1320,0
"1479",43,3,0.465114410660924,1,0,-1,425,-1
"1480",43,4,0.514701480581939,-1,1,-1,472,-2
"1481",43,5,0.371062379172429,-1,0,1,387,-1
"1482",43,6,0.30878357724162,-1,0,1,506,0
"1483",43,7,0.263435804306499,-1,0,1,1053,1
"1484",43,8,0.263300106119359,1,0,-1,586,0
"1485",43,9,0.327616973853565,-1,1,-1,253,-1
"1486",43,10,0.341667480768978,-1,0,1,257,0
"1487",43,11,0.304706895484387,-1,0,1,424,1
"1488",43,12,0.323247555326563,-1,0,1,342,2
"1489",43,13,0.267321558754182,-1,0,1,265,3
"1490",43,14,0.257656803714666,-1,0,1,306,4
"1491",43,15,0.295949153187691,1,0,-1,210,3
"1492",43,16,0.345800107609937,1,1,1,464,4
"1493",43,17,0.297416691262208,1,1,1,270,5
"1494",43,18,0.414072602900742,-1,1,-1,372,4
"1495",43,19,0.373300826954669,-1,0,1,178,5
"1496",43,20,0.390087172993763,-1,0,1,413,6
"1497",43,21,0.406761063167057,1,0,-1,225,5
"1498",43,22,0.569450395444082,-1,1,-1,164,4
"1499",43,23,0.652427999790074,1,0,-1,300,3
"1500",43,24,0.726147843635175,-1,1,-1,258,2
"1501",43,25,0.752979499457685,1,0,-1,319,1
"1502",43,26,0.825981625363471,1,1,1,366,2
"1503",43,27,0.850102120887227,1,1,1,374,3
"1504",43,28,0.895457019122982,1,1,1,525,4
"1505",43,29,0.818950830449461,1,1,1,429,5
"1506",43,30,0.888950897231104,1,1,1,283,6
"1507",43,31,0.768134078207284,-1,1,-1,211,5
"1508",43,32,0.808476227409159,1,0,-1,300,4
"1509",43,33,0.779342058085881,1,1,1,95,5
"1510",43,34,0.763361325563574,1,1,1,240,6
"1511",43,35,0.70501011712429,-1,1,-1,356,5
"1512",43,36,0.748598468154939,1,0,-1,507,4
"1513",44,1,0.56540935139143,1,1,1,1607,1
"1514",44,2,0.543828864772653,1,1,1,1440,2
"1515",44,3,0.406147823072383,-1,1,-1,382,1
"1516",44,4,0.354829620234747,1,1,1,402,2
"1517",44,5,0.34949426562065,-1,1,-1,669,1
"1518",44,6,0.240055663906014,1,1,1,1055,2
"1519",44,7,0.207415841863491,1,0,-1,943,1
"1520",44,8,0.256450236115523,-1,0,1,591,2
"1521",44,9,0.267251751898154,-1,1,-1,400,1
"1522",44,10,0.275269889331822,-1,0,1,400,2
"1523",44,11,0.230586306250066,-1,1,-1,894,1
"1524",44,12,0.280110235629629,-1,0,1,304,2
"1525",44,13,0.24712779439488,-1,0,1,670,3
"1526",44,14,0.407591350544913,-1,0,1,735,4
"1527",44,15,0.335985539110201,1,0,-1,528,3
"1528",44,16,0.438631769567362,-1,1,-1,367,2
"1529",44,17,0.436844679302723,-1,0,1,351,3
"1530",44,18,0.542452492028974,1,0,-1,784,2
"1531",44,19,0.633085171640301,1,0,-1,317,1
"1532",44,20,0.524875991539901,1,1,1,384,2
"1533",44,21,0.473845372212553,-1,1,-1,704,1
"1534",44,22,0.56455261166892,-1,1,-1,1264,0
"1535",44,23,0.61449560832711,1,0,-1,511,-1
"1536",44,24,0.727779681997564,1,1,1,607,0
"1537",44,25,0.684496481085609,1,1,1,528,1
"1538",44,26,0.627608833296362,-1,1,-1,543,0
"1539",44,27,0.613615283411762,1,1,1,368,1
"1540",44,28,0.626045601483551,-1,1,-1,259,0
"1541",44,29,0.64238577731075,-1,1,-1,287,-1
"1542",44,30,0.531362977112185,-1,0,1,447,0
"1543",44,31,0.605953543771562,1,1,1,544,1
"1544",44,32,0.649909581142341,1,0,-1,111,0
"1545",44,33,0.695536319543887,1,1,1,432,1
"1546",44,34,0.69371369384663,1,1,1,528,2
"1547",44,35,0.821768535219717,1,1,1,447,3
"1548",44,36,0.864116074447102,1,1,1,641,4
"1549",45,1,0.437132595758885,-1,1,-1,1842,-1
"1550",45,2,0.310396823534937,1,0,-1,503,-2
"1551",45,3,0.357901192856716,-1,1,-1,1555,-3
"1552",45,4,0.293457146481409,-1,0,1,936,-2
"1553",45,5,0.388184074581877,-1,0,1,830,-1
"1554",45,6,0.328283465572095,-1,0,1,534,0
"1555",45,7,0.31101782325752,-1,0,1,431,1
"1556",45,8,0.344803912741624,-1,0,1,121,2
"1557",45,9,0.351993861753691,1,0,-1,567,1
"1558",45,10,0.301577815466401,-1,1,-1,415,0
"1559",45,11,0.325654799235957,-1,0,1,315,1
"1560",45,12,0.303029799946348,-1,0,1,293,2
"1561",45,13,0.43457326311696,-1,0,1,395,3
"1562",45,14,0.515585890887288,-1,0,1,157,4
"1563",45,15,0.42308296541908,-1,0,1,260,5
"1564",45,16,0.433875445394057,1,0,-1,387,4
"1565",45,17,0.438392945764087,1,0,-1,632,3
"1566",45,18,0.564972153738123,1,1,1,310,4
"1567",45,19,0.515454278322489,-1,1,-1,370,3
"1568",45,20,0.510806446086104,1,0,-1,405,2
"1569",45,21,0.483553908654617,1,0,-1,503,1
"1570",45,22,0.523713916898532,1,1,1,300,2
"1571",45,23,0.509171538511716,1,1,1,314,3
"1572",45,24,0.4878894389949,1,1,1,380,4
"1573",45,25,0.625725127658495,-1,1,-1,366,3
"1574",45,26,0.583784813862511,1,1,1,472,4
"1575",45,27,0.636082353248017,-1,1,-1,458,3
"1576",45,28,0.6131248552421,1,1,1,309,4
"1577",45,29,0.674607246908257,1,1,1,171,5
"1578",45,30,0.783878981356453,1,0,-1,539,4
"1579",45,31,0.786297189819044,1,0,-1,334,3
"1580",45,32,0.844621054055275,-1,1,-1,581,2
"1581",45,33,0.844310789930229,-1,1,-1,521,1
"1582",45,34,0.857356011515053,1,1,1,322,2
"1583",45,35,0.805553809043068,1,1,1,317,3
"1584",45,36,0.806618676282255,-1,1,-1,353,2
"1585",46,1,0.598822557507083,1,1,1,3472,1
"1586",46,2,0.67760683485588,-1,1,-1,1363,0
"1587",46,3,0.709389297941897,1,0,-1,3077,-1
"1588",46,4,0.644546403973938,-1,1,-1,954,-2
"1589",46,5,0.705033539333549,1,1,1,1124,-1
"1590",46,6,0.646515360179984,1,1,1,818,0
"1591",46,7,0.656774481823297,1,1,1,1226,1
"1592",46,8,0.648807886860667,-1,1,-1,5076,0
"1593",46,9,0.557833913859741,-1,0,1,725,1
"1594",46,10,0.601203628948696,-1,0,1,1893,2
"1595",46,11,0.603975044715326,1,0,-1,1317,1
"1596",46,12,0.529758289844529,-1,1,-1,1283,0
"1597",46,13,0.528226959873809,1,0,-1,432,-1
"1598",46,14,0.482100528840182,-1,1,-1,938,-2
"1599",46,15,0.455864010524427,-1,0,1,3113,-1
"1600",46,16,0.463868051916291,1,0,-1,1612,-2
"1601",46,17,0.525478506958936,1,1,1,784,-1
"1602",46,18,0.476171572287455,-1,1,-1,1792,-2
"1603",46,19,0.544918541654358,-1,1,-1,6748,-3
"1604",46,20,0.487564716002952,-1,0,1,1251,-2
"1605",46,21,0.400998601592804,-1,0,1,1437,-1
"1606",46,22,0.310337412152725,1,1,1,831,0
"1607",46,23,0.264044536672433,-1,1,-1,2677,-1
"1608",46,24,0.269968434088096,-1,1,-1,3674,-2
"1609",46,25,0.287233672157626,1,0,-1,655,-3
"1610",46,26,0.405960525937521,1,1,1,549,-2
"1611",46,27,0.401572701128026,1,1,1,635,-1
"1612",46,28,0.407125271568041,1,1,1,839,0
"1613",46,29,0.316928126441506,-1,1,-1,611,-1
"1614",46,30,0.269380730838249,1,0,-1,618,-2
"1615",46,31,0.167167361169891,-1,1,-1,3435,-3
"1616",46,32,0.137561690857627,-1,0,1,1410,-2
"1617",46,33,0.233395532003189,-1,0,1,609,-1
"1618",46,34,0.474600220300249,-1,0,1,581,0
"1619",46,35,0.489779330865061,-1,1,-1,660,-1
"1620",46,36,0.579284340446986,1,1,1,1596,0
"1621",48,1,0.405335706658661,1,0,-1,1279,-1
"1622",48,2,0.420375583693115,1,1,1,455,0
"1623",48,3,0.422438532312156,-1,1,-1,561,-1
"1624",48,4,0.32764602093555,-1,0,1,93,0
"1625",48,5,0.381360188882481,-1,0,1,428,1
"1626",48,6,0.346423744697128,1,0,-1,56,0
"1627",48,7,0.309876608736071,-1,1,-1,45,-1
"1628",48,8,0.320034688348555,-1,0,1,18,0
"1629",48,9,0.336158028848061,-1,0,1,174,1
"1630",48,10,0.410382193810426,1,0,-1,51,0
"1631",48,11,0.49665960755468,-1,1,-1,162,-1
"1632",48,12,0.517156077605225,-1,0,1,66,0
"1633",48,13,0.521716937224147,1,0,-1,174,-1
"1634",48,14,0.5005866065968,1,0,-1,46,-2
"1635",48,15,0.489356098037579,-1,1,-1,41,-3
"1636",48,16,0.489706495073734,-1,0,1,86,-2
"1637",48,17,0.522047207508463,1,0,-1,52,-3
"1638",48,18,0.58316163744305,1,1,1,9,-2
"1639",48,19,0.658469817992299,-1,1,-1,163,-3
"1640",48,20,0.659533853160942,-1,0,1,68,-2
"1641",48,21,0.686609283311647,1,0,-1,86,-3
"1642",48,22,0.743805581678111,1,1,1,152,-2
"1643",48,23,0.615987929666653,-1,1,-1,19,-3
"1644",48,24,0.659267986323656,1,0,-1,30,-4
"1645",48,25,0.730509451798403,-1,1,-1,178,-5
"1646",48,26,0.777410390363215,1,0,-1,138,-6
"1647",48,27,0.690726401446399,-1,0,1,103,-5
"1648",48,28,0.573005837179838,-1,1,-1,453,-6
"1649",48,29,0.554146705052697,-1,0,1,98,-5
"1650",48,30,0.491986557314532,1,0,-1,115,-6
"1651",48,31,0.379561617811109,1,1,1,204,-5
"1652",48,32,0.297427581905368,-1,1,-1,594,-6
"1653",48,33,0.254386129820593,1,0,-1,23,-7
"1654",48,34,0.238936621763566,-1,1,-1,163,-8
"1655",48,35,0.137115433758343,-1,0,1,30,-7
"1656",48,36,0.153939614619477,-1,0,1,56,-6
"1657",49,1,0.548629013402387,1,0,-1,1191,-1
"1658",49,2,0.53595674001542,-1,1,-1,607,-2
"1659",49,3,0.473401049180151,-1,1,-1,1219,-3
"1660",49,4,0.654911045687442,1,0,-1,1307,-4
"1661",49,5,0.673920821704986,1,1,1,1982,-3
"1662",49,6,0.54919743163621,-1,1,-1,3384,-4
"1663",49,7,0.541345017059814,-1,1,-1,1244,-5
"1664",49,8,0.631780359408608,-1,1,-1,687,-6
"1665",49,9,0.632400661198961,-1,0,1,1241,-5
"1666",49,10,0.729809109812917,-1,1,-1,3101,-6
"1667",49,11,0.760386549349902,1,1,1,144,-5
"1668",49,12,0.801564018461499,1,1,1,737,-4
"1669",49,13,0.743005579151474,1,1,1,143,-3
"1670",49,14,0.786202450590658,1,1,1,3455,-2
"1671",49,15,0.837561889566907,1,1,1,1096,-1
"1672",49,16,0.771949776233044,1,1,1,542,0
"1673",49,17,0.674445151239401,-1,1,-1,648,-1
"1674",49,18,0.631998644815067,1,0,-1,3310,-2
"1675",49,19,0.489631184516431,-1,1,-1,512,-3
"1676",49,20,0.373299514812789,-1,0,1,478,-2
"1677",49,21,0.417443978869226,1,0,-1,473,-3
"1678",49,22,0.481253308848686,1,1,1,546,-2
"1679",49,23,0.519682872077462,1,1,1,555,-1
"1680",49,24,0.388986889061525,-1,1,-1,616,-2
"1681",49,25,0.305432293057309,-1,1,-1,633,-3
"1682",49,26,0.26417615282619,1,0,-1,503,-4
"1683",49,27,0.187139811077668,-1,1,-1,447,-5
"1684",49,28,0.174259087796223,-1,1,-1,463,-6
"1685",49,29,0.181458899036863,-1,1,-1,320,-7
"1686",49,30,0.221097367293702,-1,0,1,535,-6
"1687",49,31,0.202742809447684,-1,0,1,583,-5
"1688",49,32,0.155252350397221,-1,1,-1,847,-6
"1689",49,33,0.13890156715613,-1,0,1,126,-5
"1690",49,34,0.263488873015941,-1,0,1,408,-4
"1691",49,35,0.285801904761391,1,0,-1,528,-5
"1692",49,36,0.224557362612856,-1,1,-1,512,-6
"1693",50,1,0.597731250664219,-1,1,-1,1393,-1
"1694",50,2,0.596159211992621,1,0,-1,4189,-2
"1695",50,3,0.480205085004863,-1,0,1,1980,-1
"1696",50,4,0.458720491781014,-1,1,-1,836,-2
"1697",50,5,0.35242046871287,1,1,1,445,-1
"1698",50,6,0.359914723250772,1,0,-1,384,-2
"1699",50,7,0.384457813061177,-1,0,1,493,-1
"1700",50,8,0.288397709629661,-1,0,1,1423,0
"1701",50,9,0.260931164079769,1,1,1,1150,1
"1702",50,10,0.214217874837396,-1,0,1,1279,2
"1703",50,11,0.309776878342956,1,0,-1,607,1
"1704",50,12,0.343814798196336,-1,1,-1,1521,0
"1705",50,13,0.194215733248404,-1,0,1,671,1
"1706",50,14,0.255962343308996,-1,1,-1,480,0
"1707",50,15,0.11773782605678,-1,1,-1,687,-1
"1708",50,16,0.144323132272842,-1,0,1,894,0
"1709",50,17,0.112307174302178,-1,1,-1,672,-1
"1710",50,18,0.106822921513837,-1,0,1,527,0
"1711",50,19,0.110077549980016,-1,0,1,384,1
"1712",50,20,0.104177555138449,-1,0,1,560,2
"1713",50,21,0.305447878188644,1,0,-1,387,1
"1714",50,22,0.449650494811383,1,0,-1,512,0
"1715",50,23,0.57682696069482,1,0,-1,700,-1
"1716",50,24,0.703264647756973,1,0,-1,495,-2
"1717",50,25,0.775129575537727,-1,0,1,412,-1
"1718",50,26,0.826690261514834,1,0,-1,608,-2
"1719",50,27,0.825465175044046,1,0,-1,719,-3
"1720",50,28,0.837650540460757,-1,0,1,527,-2
"1721",50,29,0.865813075417727,1,0,-1,334,-3
"1722",50,30,0.788508062332776,1,0,-1,336,-4
"1723",50,31,0.794942757170831,-1,0,1,501,-3
"1724",50,32,0.778346387562113,1,0,-1,2297,-4
"1725",50,33,0.668196534576911,-1,0,1,815,-3
"1726",50,34,0.582132111822855,-1,0,1,665,-2
"1727",50,35,0.685950915362761,-1,0,1,1182,-1
"1728",50,36,0.776168462565786,-1,0,1,78,0
"1729",52,1,0.420672257244587,-1,1,-1,786,-1
"1730",52,2,0.43734701775153,1,0,-1,382,-2
"1731",52,3,0.462731598187999,-1,1,-1,420,-3
"1732",52,4,0.445051932022936,1,1,1,483,-2
"1733",52,5,0.410910516379788,1,1,1,420,-1
"1734",52,6,0.273959492848247,-1,1,-1,395,-2
"1735",52,7,0.204622260376731,-1,0,1,412,-1
"1736",52,8,0.151418778358152,-1,0,1,458,0
"1737",52,9,0.143420859662493,-1,0,1,373,1
"1738",52,10,0.243443453038801,1,0,-1,918,0
"1739",52,11,0.271321014409672,1,1,1,487,1
"1740",52,12,0.222461833896006,1,1,1,441,2
"1741",52,13,0.297598769323919,1,1,1,496,3
"1742",52,14,0.242441774937207,-1,0,1,487,4
"1743",52,15,0.317812424595325,1,0,-1,384,3
"1744",52,16,0.271196784449933,-1,1,-1,493,2
"1745",52,17,0.45972516065615,-1,0,1,219,3
"1746",52,18,0.519059020904215,1,0,-1,410,2
"1747",52,19,0.572056588732043,-1,0,1,409,3
"1748",52,20,0.498418926826997,1,0,-1,492,2
"1749",52,21,0.526641074912234,-1,1,-1,66,1
"1750",52,22,0.565777602026411,1,1,1,399,2
"1751",52,23,0.625874961094736,-1,1,-1,377,1
"1752",52,24,0.733532629189981,-1,1,-1,393,0
"1753",52,25,0.76798367227322,-1,1,-1,383,-1
"1754",52,26,0.82880894490211,1,1,1,339,0
"1755",52,27,0.840962550825712,1,1,1,397,1
"1756",52,28,0.879020593148177,-1,1,-1,456,0
"1757",52,29,0.877162101324932,-1,0,1,135,1
"1758",52,30,0.786046711012747,1,0,-1,407,0
"1759",52,31,0.700177600217037,1,1,1,326,1
"1760",52,32,0.771286927032621,1,1,1,347,2
"1761",52,33,0.806300360551368,1,0,-1,400,1
"1762",52,34,0.865089311717027,1,0,-1,336,0
"1763",52,35,0.731359119227505,1,0,-1,397,-1
"1764",52,36,0.772937086279018,-1,0,1,324,0
"1765",53,1,0.576850698888302,1,1,1,2322,1
"1766",53,2,0.627828565994243,NA,NA,NA,NA,NA
"1767",53,3,0.74105039682646,1,1,1,647,2
"1768",53,4,0.793994681666207,1,1,1,232,3
"1769",53,5,0.478470638827669,1,1,1,87,4
"1770",53,6,0.305033873521056,-1,1,-1,137,3
"1771",53,7,0.293968905951924,1,0,-1,199,2
"1772",53,8,0.339562499724959,-1,1,-1,264,1
"1773",53,9,0.336215065269546,-1,1,-1,280,0
"1774",53,10,0.379017481698019,1,0,-1,24,-1
"1775",53,11,0.339479350791081,1,1,1,96,0
"1776",53,12,0.352324575637136,-1,1,-1,79,-1
"1777",53,13,0.416890021987455,-1,1,-1,255,-2
"1778",53,14,0.433482160621305,1,1,1,168,-1
"1779",53,15,0.50047913728899,-1,1,-1,168,-2
"1780",53,16,0.524511027913548,1,1,1,145,-1
"1781",53,17,0.429745734013319,-1,1,-1,135,-2
"1782",53,18,0.452126748006579,-1,0,1,631,-1
"1783",53,19,0.440244298843827,-1,1,-1,120,-2
"1784",53,20,0.473605680003185,1,0,-1,513,-3
"1785",53,21,0.460567426398196,-1,1,-1,407,-4
"1786",53,22,0.395046738803961,-1,1,-1,72,-5
"1787",53,23,0.306964077042527,1,1,1,24,-4
"1788",53,24,0.315199820634838,-1,1,-1,776,-5
"1789",53,25,0.332677008513636,1,0,-1,344,-6
"1790",53,26,0.459486155417335,-1,0,1,40,-5
"1791",53,27,0.499085631195723,1,0,-1,255,-6
"1792",53,28,0.468464769492639,-1,1,-1,184,-7
"1793",53,29,0.569761957660172,1,0,-1,1,-8
"1794",53,30,0.663970836199574,-1,1,-1,567,-9
"1795",53,31,0.716137931151592,1,1,1,152,-8
"1796",53,32,0.710622491202176,1,1,1,248,-7
"1797",53,33,0.724719395950053,-1,0,1,16,-6
"1798",53,34,0.743706071938839,1,1,1,128,-5
"1799",53,35,0.787292701650276,-1,0,1,47,-4
"1800",53,36,0.870028677328466,1,1,1,223,-3
"1801",54,1,0.516757849045098,1,1,1,1634,1
"1802",54,2,0.556450018694232,-1,1,-1,451,0
"1803",54,3,0.584088323642011,1,0,-1,1371,-1
"1804",54,4,0.544368187777227,1,1,1,1166,0
"1805",54,5,0.640951237206809,-1,1,-1,263,-1
"1806",54,6,0.69692198241658,-1,1,-1,564,-2
"1807",54,7,0.800945798599569,1,0,-1,982,-3
"1808",54,8,0.752797158999029,1,0,-1,297,-4
"1809",54,9,0.752195857134034,1,1,1,528,-3
"1810",54,10,0.82842607506874,1,1,1,449,-2
"1811",54,11,0.70787283302323,-1,1,-1,1028,-3
"1812",54,12,0.61097189358417,1,1,1,298,-2
"1813",54,13,0.50199843775626,-1,1,-1,291,-3
"1814",54,14,0.413269253408668,1,1,1,291,-2
"1815",54,15,0.445487968594891,-1,1,-1,375,-3
"1816",54,16,0.41459464918888,-1,1,-1,407,-4
"1817",54,17,0.249174050776202,-1,0,1,101,-3
"1818",54,18,0.292774252957676,1,0,-1,296,-4
"1819",54,19,0.355551653537316,-1,0,1,71,-3
"1820",54,20,0.252798981359333,-1,0,1,960,-2
"1821",54,21,0.254500948504511,1,0,-1,332,-3
"1822",54,22,0.125354559853049,-1,0,1,365,-2
"1823",54,23,0.166057059460811,-1,0,1,447,-1
"1824",54,24,0.268980650664579,1,1,1,491,0
"1825",54,25,0.204742848615423,-1,0,1,413,1
"1826",54,26,0.304641862990685,-1,1,-1,449,0
"1827",54,27,0.379152549913505,1,1,1,2750,1
"1828",54,28,0.400349451227375,-1,0,1,795,2
"1829",54,29,0.358106399303173,1,0,-1,374,1
"1830",54,30,0.494004447655794,-1,0,1,411,2
"1831",54,31,0.522207967517766,1,0,-1,429,1
"1832",54,32,0.454032127024861,1,1,1,381,2
"1833",54,33,0.369957361273888,1,0,-1,1527,1
"1834",54,34,0.504414662219309,-1,0,1,407,2
"1835",54,35,0.597708775427533,1,1,1,488,3
"1836",54,36,0.712699243671052,1,1,1,569,4
"1837",55,1,0.577857021428645,-1,1,-1,2566,-1
"1838",55,2,0.558656245001371,1,0,-1,467,-2
"1839",55,3,0.511851191999632,-1,1,-1,396,-3
"1840",55,4,0.46814832366378,1,0,-1,380,-4
"1841",55,5,0.440336500667051,-1,0,1,1132,-3
"1842",55,6,0.428351494341694,-1,1,-1,305,-4
"1843",55,7,0.439670898563907,1,0,-1,577,-5
"1844",55,8,0.417457817046375,-1,1,-1,394,-6
"1845",55,9,0.497447509265941,1,0,-1,935,-7
"1846",55,10,0.546382795020451,1,0,-1,764,-8
"1847",55,11,0.52672273180312,1,0,-1,463,-9
"1848",55,12,0.492725990903992,-1,0,1,388,-8
"1849",55,13,0.469742146922623,-1,0,1,334,-7
"1850",55,14,0.51392953813929,-1,0,1,408,-6
"1851",55,15,0.542943922711891,1,0,-1,553,-7
"1852",55,16,0.53160254558023,1,1,1,296,-6
"1853",55,17,0.451023347160094,1,1,1,252,-5
"1854",55,18,0.431536618644669,-1,1,-1,368,-6
"1855",55,19,0.39780582657849,-1,0,1,317,-5
"1856",55,20,0.344695793406017,-1,0,1,693,-4
"1857",55,21,0.24906198267646,-1,1,-1,344,-5
"1858",55,22,0.283552238558094,-1,1,-1,354,-6
"1859",55,23,0.29864798699397,-1,1,-1,328,-7
"1860",55,24,0.381191148885356,-1,0,1,337,-6
"1861",55,25,0.405264817170212,-1,0,1,330,-5
"1862",55,26,0.433205856509174,-1,0,1,413,-4
"1863",55,27,0.428828235344002,-1,0,1,445,-3
"1864",55,28,0.504539912175286,1,0,-1,384,-4
"1865",55,29,0.523720073697737,1,1,1,276,-3
"1866",55,30,0.57577254810069,1,1,1,1036,-2
"1867",55,31,0.685777947189063,1,1,1,324,-1
"1868",55,32,0.796914264995714,1,1,1,706,0
"1869",55,33,0.836069891844972,1,1,1,409,1
"1870",55,34,0.883254782646572,-1,1,-1,441,0
"1871",55,35,0.873534998704717,1,0,-1,1169,-1
"1872",55,36,0.887580349895993,1,1,1,385,0
"1873",56,1,0.446218503639102,1,1,1,2485,1
"1874",56,2,0.448533421245841,-1,1,-1,696,0
"1875",56,3,0.524133652510207,-1,0,1,1190,1
"1876",56,4,0.493372128025852,1,0,-1,511,0
"1877",56,5,0.548996997271332,1,1,1,349,1
"1878",56,6,0.580175897849325,1,1,1,366,2
"1879",56,7,0.360839808306286,-1,1,-1,389,1
"1880",56,8,0.363298257813663,1,1,1,358,2
"1881",56,9,0.281345125491059,-1,1,-1,440,1
"1882",56,10,0.414902328291863,-1,1,-1,419,0
"1883",56,11,0.372701915677216,1,1,1,299,1
"1884",56,12,0.461854627268116,-1,1,-1,279,0
"1885",56,13,0.537492444444139,1,1,1,458,1
"1886",56,14,0.577794138806506,1,0,-1,325,0
"1887",56,15,0.585761249853219,1,1,1,287,1
"1888",56,16,0.63024220601605,-1,1,-1,358,0
"1889",56,17,0.715845195651939,1,1,1,655,1
"1890",56,18,0.74008007852933,1,1,1,274,2
"1891",56,19,0.698163390162875,-1,0,1,282,3
"1892",56,20,0.755164895265464,1,1,1,360,4
"1893",56,21,0.742180499545444,1,1,1,295,5
"1894",56,22,0.612396739300827,1,0,-1,398,4
"1895",56,23,0.610915441640035,1,0,-1,278,3
"1896",56,24,0.581054128541896,1,0,-1,279,2
"1897",56,25,0.598985307878988,-1,1,-1,255,1
"1898",56,26,0.62050479596706,1,1,1,247,2
"1899",56,27,0.649039128153074,-1,1,-1,279,1
"1900",56,28,0.617248859872411,1,1,1,335,2
"1901",56,29,0.550136595981261,-1,1,-1,263,1
"1902",56,30,0.387278257597902,1,1,1,336,2
"1903",56,31,0.293702332384669,-1,0,1,280,3
"1904",56,32,0.208979250822215,-1,1,-1,318,2
"1905",56,33,0.178032851057779,-1,1,-1,263,1
"1906",56,34,0.179269443199589,1,1,1,231,2
"1907",56,35,0.180212850876318,-1,1,-1,359,1
"1908",56,36,0.317286833784791,1,1,1,400,2
"1909",57,1,0.566032566446662,-1,1,-1,1605,-1
"1910",57,2,0.620819739738148,1,0,-1,826,-2
"1911",57,3,0.697976338937028,1,1,1,523,-1
"1912",57,4,0.56615465165797,1,1,1,551,0
"1913",57,5,0.627371936113804,-1,1,-1,670,-1
"1914",57,6,0.552492543104118,-1,0,1,369,0
"1915",57,7,0.695818258195061,1,0,-1,383,-1
"1916",57,8,0.71019545031913,1,1,1,782,0
"1917",57,9,0.78373800513652,1,1,1,587,1
"1918",57,10,0.563693409562428,-1,1,-1,341,0
"1919",57,11,0.553991832686412,-1,1,-1,451,-1
"1920",57,12,0.54073266298484,-1,0,1,471,0
"1921",57,13,0.495020790598375,1,0,-1,512,-1
"1922",57,14,0.454639147926605,-1,1,-1,337,-2
"1923",57,15,0.474601871020851,1,0,-1,534,-3
"1924",57,16,0.544742816228141,1,1,1,926,-2
"1925",57,17,0.584463199037941,1,1,1,590,-1
"1926",57,18,0.588820680967184,1,1,1,2177,0
"1927",57,19,0.532470803559048,1,1,1,837,1
"1928",57,20,0.508666225881781,-1,1,-1,442,0
"1929",57,21,0.602497057596315,-1,1,-1,683,-1
"1930",57,22,0.608149751276815,-1,0,1,350,0
"1931",57,23,0.508879511660248,-1,0,1,364,1
"1932",57,24,0.504480206716087,1,0,-1,360,0
"1933",57,25,0.41023360917218,-1,1,-1,1288,-1
"1934",57,26,0.45605789766455,-1,0,1,624,0
"1935",57,27,0.344729845754044,1,0,-1,474,-1
"1936",57,28,0.331796767870298,-1,0,1,502,0
"1937",57,29,0.23175120961913,-1,0,1,879,1
"1938",57,30,0.158944388535401,-1,0,1,379,2
"1939",57,31,0.135749586786723,-1,0,1,384,3
"1940",57,32,0.107575491166796,-1,0,1,310,4
"1941",57,33,0.135157157513242,1,0,-1,354,3
"1942",57,34,0.165200281470788,-1,0,1,492,4
"1943",57,35,0.242353666491194,-1,0,1,379,5
"1944",57,36,0.159680820186793,-1,0,1,418,6
"1945",58,1,0.465322951505065,1,1,1,1484,1
"1946",58,2,0.414587072502714,1,0,-1,1510,0
"1947",58,3,0.418805722111067,-1,1,-1,678,-1
"1948",58,4,0.452800915821299,-1,0,1,516,0
"1949",58,5,0.450238401266287,-1,0,1,584,1
"1950",58,6,0.605845979094693,-1,0,1,478,2
"1951",58,7,0.615267826138704,1,0,-1,479,1
"1952",58,8,0.654981953437612,1,1,1,404,2
"1953",58,9,0.676013707801536,1,1,1,481,3
"1954",58,10,0.780735426633639,1,1,1,1784,4
"1955",58,11,0.729606452489421,1,1,1,445,5
"1956",58,12,0.63839163423876,1,1,1,410,6
"1957",58,13,0.614033824568365,-1,1,-1,624,5
"1958",58,14,0.587686606992803,-1,0,1,367,6
"1959",58,15,0.530208091316814,1,0,-1,361,5
"1960",58,16,0.540702785994038,1,1,1,391,6
"1961",58,17,0.578954710618867,-1,1,-1,573,5
"1962",58,18,0.585872538786542,1,0,-1,358,4
"1963",58,19,0.687559878398009,1,1,1,330,5
"1964",58,20,0.607209441183206,-1,1,-1,384,4
"1965",58,21,0.696235136363051,1,0,-1,431,3
"1966",58,22,0.633124062718934,-1,1,-1,280,2
"1967",58,23,0.558942580077593,1,0,-1,431,1
"1968",58,24,0.502376459991929,1,1,1,511,2
"1969",58,25,0.376073440050155,1,1,1,727,3
"1970",58,26,0.370800316532332,-1,1,-1,512,2
"1971",58,27,0.329225976615392,-1,0,1,404,3
"1972",58,28,0.211125883946846,-1,0,1,503,4
"1973",58,29,0.166777051604112,-1,0,1,471,5
"1974",58,30,0.250485639735075,-1,0,1,439,6
"1975",58,31,0.270867258546057,-1,0,1,482,7
"1976",58,32,0.269235492637459,-1,0,1,447,8
"1977",58,33,0.340067118921007,-1,0,1,576,9
"1978",58,34,0.367659927402065,-1,0,1,424,10
"1979",58,35,0.28124675108701,-1,0,1,470,11
"1980",58,36,0.236482359966357,1,0,-1,536,10
"1981",59,1,0.417248139995484,1,1,1,2956,1
"1982",59,2,0.33653531329742,-1,1,-1,463,0
"1983",59,3,0.305701044322146,-1,0,1,563,1
"1984",59,4,0.143941639143442,-1,0,1,519,2
"1985",59,5,0.206217770089644,-1,0,1,1637,3
"1986",59,6,0.250298444009568,-1,0,1,663,4
"1987",59,7,0.187238790522422,-1,0,1,527,5
"1988",59,8,0.246593583225682,-1,0,1,693,6
"1989",59,9,0.291459876141883,-1,0,1,1042,7
"1990",59,10,0.350496448581071,1,0,-1,569,6
"1991",59,11,0.390810466242298,-1,1,-1,305,5
"1992",59,12,0.334906619488138,-1,0,1,404,6
"1993",59,13,0.337451956769003,-1,0,1,655,7
"1994",59,14,0.274275940297882,1,0,-1,750,6
"1995",59,15,0.359343928086244,1,0,-1,480,5
"1996",59,16,0.479032584221794,-1,1,-1,503,4
"1997",59,17,0.442640724689962,1,0,-1,337,3
"1998",59,18,0.436503685765305,-1,1,-1,453,2
"1999",59,19,0.525244331115171,1,1,1,353,3
"2000",59,20,0.464213121086738,-1,0,1,374,4
"2001",59,21,0.492405081830467,-1,1,-1,384,3
"2002",59,22,0.549631794335866,1,0,-1,361,2
"2003",59,23,0.503632693916483,1,0,-1,383,1
"2004",59,24,0.673324374576667,1,1,1,278,2
"2005",59,25,0.633661497211489,1,1,1,337,3
"2006",59,26,0.713134408049344,1,1,1,547,4
"2007",59,27,0.714923573862956,1,1,1,407,5
"2008",59,28,0.765980158546952,1,1,1,409,6
"2009",59,29,0.819099008617895,-1,1,-1,422,5
"2010",59,30,0.855304775742061,1,0,-1,328,4
"2011",59,31,0.787624856671288,1,1,1,298,5
"2012",59,32,0.774190980714093,1,1,1,447,6
"2013",59,33,0.739977703993192,1,1,1,319,7
"2014",59,34,0.847333262085192,1,1,1,413,8
"2015",59,35,0.836134576447861,1,1,1,458,9
"2016",59,36,0.848851226643565,1,1,1,432,10
"2017",60,1,0.401250155363232,1,1,1,2776,1
"2018",60,2,0.396934051128729,-1,1,-1,615,0
"2019",60,3,0.35374155932785,1,0,-1,488,-1
"2020",60,4,0.364557276271412,-1,1,-1,1166,-2
"2021",60,5,0.439068730630393,-1,1,-1,516,-3
"2022",60,6,0.425193650514552,1,1,1,474,-2
"2023",60,7,0.463211749344629,1,0,-1,582,-3
"2024",60,8,0.514894111171923,1,1,1,731,-2
"2025",60,9,0.552609503079507,-1,1,-1,835,-3
"2026",60,10,0.531945110672742,-1,0,1,384,-2
"2027",60,11,0.643512967942805,1,0,-1,1304,-3
"2028",60,12,0.658444851241727,1,1,1,419,-2
"2029",60,13,0.634620823567505,1,1,1,1050,-1
"2030",60,14,0.67629197158124,1,1,1,1609,0
"2031",60,15,0.667566330703182,-1,0,1,459,1
"2032",60,16,0.562116104103193,1,0,-1,758,0
"2033",60,17,0.595894307945202,-1,1,-1,520,-1
"2034",60,18,0.561089864443414,-1,0,1,1061,0
"2035",60,19,0.644979186947513,-1,0,1,991,1
"2036",60,20,0.681524729878514,1,1,1,1024,2
"2037",60,21,0.696502024636807,-1,1,-1,816,1
"2038",60,22,0.70441421972612,1,1,1,2275,2
"2039",60,23,0.582512027647568,-1,1,-1,685,1
"2040",60,24,0.525337682058019,1,0,-1,559,0
"2041",60,25,0.430891532923352,-1,1,-1,853,-1
"2042",60,26,0.442755044412036,-1,0,1,1140,0
"2043",60,27,0.396873133350842,-1,1,-1,3880,-1
"2044",60,28,0.36758917094704,-1,0,1,3591,0
"2045",60,29,0.276756881600633,-1,1,-1,915,-1
"2046",60,30,0.270490115388603,-1,0,1,1944,0
"2047",60,31,0.288951628221211,-1,0,1,986,1
"2048",60,32,0.213021466973982,-1,0,1,3186,2
"2049",60,33,0.247930220940483,-1,1,-1,752,1
"2050",60,34,0.215679124674227,-1,0,1,445,2
"2051",60,35,0.164980869369375,-1,0,1,544,3
"2052",60,36,0.219510265171483,1,0,-1,768,2
"2053",61,1,0.532277403645794,1,1,1,1864,1
"2054",61,2,0.483628488511468,-1,1,-1,479,0
"2055",61,3,0.542142765304466,-1,1,-1,590,-1
"2056",61,4,0.599899185843834,1,0,-1,419,-2
"2057",61,5,0.563704104850989,1,1,1,491,-1
"2058",61,6,0.620140897430711,-1,1,-1,689,-2
"2059",61,7,0.534820811123408,1,1,1,1018,-1
"2060",61,8,0.593956724573629,1,1,1,636,0
"2061",61,9,0.607024374633201,-1,1,-1,540,-1
"2062",61,10,0.541765122130016,1,0,-1,358,-2
"2063",61,11,0.511653936522588,1,1,1,930,-1
"2064",61,12,0.3885775890513,-1,1,-1,453,-2
"2065",61,13,0.389091814306411,-1,0,1,479,-1
"2066",61,14,0.358406931857768,1,0,-1,494,-2
"2067",61,15,0.244401094853425,-1,0,1,302,-1
"2068",61,16,0.212685010433294,-1,0,1,674,0
"2069",61,17,0.304967776556282,-1,0,1,603,1
"2070",61,18,0.333532384737391,-1,0,1,1203,2
"2071",61,19,0.433522634006106,1,0,-1,439,1
"2072",61,20,0.402136005190945,-1,0,1,478,2
"2073",61,21,0.498969420274761,1,0,-1,600,1
"2074",61,22,0.441091311967564,-1,1,-1,520,0
"2075",61,23,0.443304905011739,1,0,-1,62,-1
"2076",61,24,0.521610233097852,1,0,-1,510,-2
"2077",61,25,0.507755422273237,-1,1,-1,421,-3
"2078",61,26,0.547876777810517,1,1,1,113,-2
"2079",61,27,0.657640450866969,1,1,1,422,-1
"2080",61,28,0.753085805492582,1,1,1,509,0
"2081",61,29,0.765271912409401,-1,1,-1,475,-1
"2082",61,30,0.827637597316361,1,1,1,439,0
"2083",61,31,0.842141410537035,1,1,1,550,1
"2084",61,32,0.892785009245736,1,1,1,542,2
"2085",61,33,0.611091428322725,-1,1,-1,454,1
"2086",61,34,0.610239007156897,-1,1,-1,438,0
"2087",61,35,0.563497702967182,-1,1,-1,538,-1
"2088",61,36,0.501531417089463,-1,0,1,97,0
"2089",62,1,0.48869642582722,-1,1,-1,1708,-1
"2090",62,2,0.500502823994705,1,0,-1,1036,-2
"2091",62,3,0.411657528578655,-1,1,-1,910,-3
"2092",62,4,0.442751436023795,1,0,-1,848,-4
"2093",62,5,0.371970271067842,-1,0,1,1818,-3
"2094",62,6,0.45061242745267,-1,1,-1,1342,-4
"2095",62,7,0.442854751995146,-1,0,1,1117,-3
"2096",62,8,0.390118064607399,1,0,-1,954,-4
"2097",62,9,0.439726359100446,-1,0,1,917,-3
"2098",62,10,0.384275861656777,-1,1,-1,840,-4
"2099",62,11,0.39721924084266,-1,0,1,1083,-3
"2100",62,12,0.297390529465591,-1,1,-1,742,-4
"2101",62,13,0.300335221727809,1,0,-1,520,-5
"2102",62,14,0.430840180642897,1,1,1,512,-4
"2103",62,15,0.370687888786768,-1,1,-1,406,-5
"2104",62,16,0.295821116168702,-1,0,1,490,-4
"2105",62,17,0.439664194484493,1,0,-1,559,-5
"2106",62,18,0.477302232754408,1,1,1,1349,-4
"2107",62,19,0.511676808693857,1,0,-1,601,-5
"2108",62,20,0.464009415777373,1,0,-1,666,-6
"2109",62,21,0.445817414744842,1,1,1,396,-5
"2110",62,22,0.386487407502353,1,1,1,534,-4
"2111",62,23,0.512723519684269,-1,1,-1,331,-5
"2112",62,24,0.519106977232617,-1,0,1,221,-4
"2113",62,25,0.601902776050517,-1,0,1,1299,-3
"2114",62,26,0.696981831925764,-1,0,1,447,-2
"2115",62,27,0.704815434692117,-1,0,1,343,-1
"2116",62,28,0.813760041385177,1,0,-1,514,-2
"2117",62,29,0.846023372121601,1,1,1,246,-1
"2118",62,30,0.793444366845935,1,1,1,337,0
"2119",62,31,0.76937532135054,1,1,1,513,1
"2120",62,32,0.738810778139998,1,0,-1,492,0
"2121",62,33,0.78088506718026,1,1,1,618,1
"2122",62,34,0.825866881036068,1,1,1,415,2
"2123",62,35,0.84360013827406,1,1,1,430,3
"2124",62,36,0.768084070245106,-1,1,-1,329,2
"2125",63,1,0.525461823493242,NA,NA,NA,NA,NA
"2126",63,2,0.577385213111425,1,0,-1,806,-1
"2127",63,3,0.568561306140015,1,0,-1,1194,-2
"2128",63,4,0.683254129731482,NA,NA,NA,NA,NA
"2129",63,5,0.746490290255851,1,0,-1,891,-3
"2130",63,6,0.784489946572727,-1,1,-1,966,-4
"2131",63,7,0.776266515693632,1,1,1,245,-3
"2132",63,8,0.709803619723557,-1,0,1,511,-2
"2133",63,9,0.730084851984311,-1,0,1,1023,-1
"2134",63,10,0.802863437847171,1,1,1,602,0
"2135",63,11,0.795372120265683,1,1,1,346,1
"2136",63,12,0.791758508608248,1,1,1,326,2
"2137",63,13,0.858795374866982,1,1,1,375,3
"2138",63,14,0.814571416347929,1,1,1,397,4
"2139",63,15,0.742580391264282,1,1,1,178,5
"2140",63,16,0.666167776529852,-1,1,-1,347,4
"2141",63,17,0.587075371333406,1,0,-1,1,3
"2142",63,18,0.568142329531646,-1,1,-1,339,2
"2143",63,19,0.558074357705661,1,0,-1,383,1
"2144",63,20,0.500308008508122,-1,1,-1,573,0
"2145",63,21,0.394537339586413,-1,0,1,347,1
"2146",63,22,0.35007037556297,-1,0,1,456,2
"2147",63,23,0.370686372624324,-1,0,1,60,3
"2148",63,24,0.347127728214889,-1,0,1,333,4
"2149",63,25,0.27823647654167,-1,0,1,78,5
"2150",63,26,0.322510219202702,1,1,1,106,6
"2151",63,27,0.170868556274585,-1,1,-1,118,5
"2152",63,28,0.145626324259972,-1,1,-1,155,4
"2153",63,29,0.210770246392589,1,1,1,51,5
"2154",63,30,0.26104036822901,-1,1,-1,17,4
"2155",63,31,0.315134653069747,1,0,-1,105,3
"2156",63,32,0.383105098559708,-1,1,-1,102,2
"2157",63,33,0.300671492254469,1,0,-1,129,1
"2158",63,34,0.218891196644114,1,0,-1,82,0
"2159",63,35,0.280216999243591,1,0,-1,81,-1
"2160",63,36,0.287374725657225,1,0,-1,218,-2
"2161",64,1,0.403397252131253,1,0,-1,4526,-1
"2162",64,2,0.219976492770373,NA,NA,NA,NA,NA
"2163",64,3,0.144750609860539,-1,1,-1,564,-2
"2164",64,4,0.181356650928163,-1,0,1,963,-1
"2165",64,5,0.171028081966778,-1,0,1,1535,0
"2166",64,6,0.175509709170345,1,0,-1,820,-1
"2167",64,7,0.257689245128325,-1,1,-1,594,-2
"2168",64,8,0.420983760005616,-1,1,-1,667,-3
"2169",64,9,0.404711350995066,1,0,-1,417,-4
"2170",64,10,0.524008090832169,-1,1,-1,691,-5
"2171",64,11,0.489058340896621,1,0,-1,508,-6
"2172",64,12,0.60832254725185,1,1,1,734,-5
"2173",64,13,0.541669647203725,1,0,-1,2827,-6
"2174",64,14,0.594167562953514,-1,1,-1,1909,-7
"2175",64,15,0.751931682442049,-1,0,1,2316,-6
"2176",64,16,0.767098244613417,1,1,1,2635,-5
"2177",64,17,0.8284716939078,-1,1,-1,710,-6
"2178",64,18,0.877539908489492,1,1,1,1171,-5
"2179",64,19,0.794529266861973,1,1,1,672,-4
"2180",64,20,0.741964782826127,1,1,1,965,-3
"2181",64,21,0.660434903216417,-1,1,-1,665,-4
"2182",64,22,0.643286937434612,-1,0,1,412,-3
"2183",64,23,0.523553182687781,1,0,-1,590,-4
"2184",64,24,0.430089934687633,1,1,1,487,-3
"2185",64,25,0.401043316447036,-1,1,-1,426,-4
"2186",64,26,0.312247430843631,1,0,-1,410,-5
"2187",64,27,0.315369761430393,-1,1,-1,380,-6
"2188",64,28,0.333081113160484,-1,0,1,338,-5
"2189",64,29,0.4071561741515,1,0,-1,387,-6
"2190",64,30,0.469429266310365,1,1,1,417,-5
"2191",64,31,0.487807203069466,1,1,1,332,-4
"2192",64,32,0.483741950992289,1,1,1,505,-3
"2193",64,33,0.499610730162425,1,1,1,594,-2
"2194",64,34,0.672964478058701,1,1,1,434,-1
"2195",64,35,0.541211373574982,1,1,1,403,0
"2196",64,36,0.444185102248541,1,1,1,374,1
"2197",65,1,0.502394956769422,1,1,1,1678,1
"2198",65,2,0.416768117198189,1,1,1,1590,2
"2199",65,3,0.332432956540714,-1,1,-1,426,1
"2200",65,4,0.369890982334076,1,0,-1,355,0
"2201",65,5,0.417835579851599,1,1,1,918,1
"2202",65,6,0.305148123929717,-1,1,-1,281,0
"2203",65,7,0.244068565356117,-1,1,-1,853,-1
"2204",65,8,0.309044472312663,-1,0,1,70,0
"2205",65,9,0.282892732773057,-1,0,1,378,1
"2206",65,10,0.282337137014341,-1,0,1,273,2
"2207",65,11,0.189526184939038,-1,0,1,470,3
"2208",65,12,0.175568389526872,-1,0,1,105,4
"2209",65,13,0.31345663246135,1,0,-1,70,3
"2210",65,14,0.380228638180162,-1,1,-1,76,2
"2211",65,15,0.219678549386811,-1,0,1,137,3
"2212",65,16,0.301316523173503,-1,0,1,220,4
"2213",65,17,0.49357406839711,-1,0,1,180,5
"2214",65,18,0.544207704947913,-1,0,1,671,6
"2215",65,19,0.624231786427807,1,0,-1,53,5
"2216",65,20,0.598842542903044,-1,1,-1,154,4
"2217",65,21,0.574405735663849,-1,0,1,268,5
"2218",65,22,0.509340571209885,-1,0,1,393,6
"2219",65,23,0.611835630670567,1,0,-1,453,5
"2220",65,24,0.679606629522281,-1,1,-1,520,4
"2221",65,25,0.628337253861278,1,0,-1,833,3
"2222",65,26,0.669030641798001,1,1,1,500,4
"2223",65,27,0.647694060567279,1,1,1,663,5
"2224",65,28,0.493776251248301,1,1,1,1382,6
"2225",65,29,0.543772346829154,1,1,1,323,7
"2226",65,30,0.667898502343047,-1,1,-1,1192,6
"2227",65,31,0.605744736998122,1,0,-1,458,5
"2228",65,32,0.755467772440702,1,1,1,481,6
"2229",65,33,0.712701504952094,1,1,1,326,7
"2230",65,34,0.672635722976067,-1,1,-1,1098,6
"2231",65,35,0.693408691632108,-1,0,1,435,7
"2232",65,36,0.680895561253153,1,0,-1,329,6
"2233",66,1,0.424539943784475,1,1,1,1488,1
"2234",66,2,0.320996904892274,-1,1,-1,817,0
"2235",66,3,0.376832239128944,-1,0,1,717,1
"2236",66,4,0.426859780184279,1,0,-1,797,0
"2237",66,5,0.562024198762157,-1,1,-1,424,-1
"2238",66,6,0.543998214848989,1,1,1,279,0
"2239",66,7,0.527334303965323,1,1,1,303,1
"2240",66,8,0.43872483531635,-1,1,-1,290,0
"2241",66,9,0.428080029164239,-1,1,-1,88,-1
"2242",66,10,0.49382396676167,1,1,1,306,0
"2243",66,11,0.46602229196241,1,1,1,292,1
"2244",66,12,0.480637217823276,-1,1,-1,100,0
"2245",66,13,0.415988133051733,-1,0,1,299,1
"2246",66,14,0.384519466414655,-1,1,-1,314,0
"2247",66,15,0.346342328425605,1,0,-1,378,-1
"2248",66,16,0.295315922732803,-1,1,-1,236,-2
"2249",66,17,0.245218558460909,1,0,-1,322,-3
"2250",66,18,0.130688670870235,-1,0,1,584,-2
"2251",66,19,0.104325550217344,-1,0,1,279,-1
"2252",66,20,0.200927921515563,-1,1,-1,529,-2
"2253",66,21,0.260719774058569,1,1,1,370,-1
"2254",66,22,0.407647573592257,-1,1,-1,401,-2
"2255",66,23,0.422021843032285,-1,1,-1,368,-3
"2256",66,24,0.640238941697809,-1,0,1,265,-2
"2257",66,25,0.706844058997561,-1,0,1,613,-1
"2258",66,26,0.724906034787038,1,0,-1,366,-2
"2259",66,27,0.703954506022624,1,1,1,625,-1
"2260",66,28,0.730202445062773,1,1,1,506,0
"2261",66,29,0.704582504920542,1,1,1,765,1
"2262",66,30,0.707720802720268,1,0,-1,84,0
"2263",66,31,0.631367147969631,1,0,-1,1536,-1
"2264",66,32,0.783089478651575,1,1,1,355,0
"2265",66,33,0.864988476329553,1,1,1,507,1
"2266",66,34,0.841958625533728,1,1,1,629,2
"2267",66,35,0.843406056956047,1,1,1,550,3
"2268",66,36,0.819234068668609,1,1,1,676,4
"2269",67,1,0.431349220080301,-1,1,-1,1677,-1
"2270",67,2,0.426256180276844,-1,0,1,427,0
"2271",67,3,0.41131844059323,1,0,-1,345,-1
"2272",67,4,0.359701586844037,-1,1,-1,381,-2
"2273",67,5,0.278677779923904,1,1,1,225,-1
"2274",67,6,0.286498069225628,1,1,1,334,0
"2275",67,7,0.304167626745014,-1,1,-1,369,-1
"2276",67,8,0.240763437496118,-1,1,-1,1562,-2
"2277",67,9,0.289269947759307,1,1,1,133,-1
"2278",67,10,0.182465581581221,-1,1,-1,1218,-2
"2279",67,11,0.343046437081042,-1,1,-1,369,-3
"2280",67,12,0.277763727538153,-1,1,-1,16,-4
"2281",67,13,0.236283900847942,-1,1,-1,432,-5
"2282",67,14,0.316201819437243,1,0,-1,141,-6
"2283",67,15,0.265472243863289,-1,1,-1,229,-7
"2284",67,16,0.309428688382646,-1,0,1,247,-6
"2285",67,17,0.377841837347479,-1,0,1,654,-5
"2286",67,18,0.483227876739172,-1,0,1,268,-4
"2287",67,19,0.486791712524616,-1,1,-1,316,-5
"2288",67,20,0.49758718749577,1,0,-1,100,-6
"2289",67,21,0.530864218236682,-1,1,-1,579,-7
"2290",67,22,0.513490368246029,-1,0,1,466,-6
"2291",67,23,0.549662276116346,1,0,-1,269,-7
"2292",67,24,0.585684843380726,1,0,-1,423,-8
