,SubID,trial_num,pUP,stock_outcome,Advisor,AdvisorCorrect,choice,outcome,rt,tally1,1,1,0.58480064,1,3,0,0,1,3182,172,1,2,0.510771746,1,1,1,1,1,2036,183,1,3,0.552771416,1,2,1,1,1,2354,194,1,4,0.492736881,1,1,1,1,1,1388,205,1,5,0.465234498,1,3,0,0,1,1386,216,1,6,0.500273344,-1,2,1,1,1,1652,227,1,7,0.381700264,-1,3,1,0,-1,1020,218,1,8,0.277252612,-1,2,0,1,-1,1102,209,1,9,0.300059289,1,1,0,1,-1,823,1910,1,10,0.255691287,-1,2,1,1,1,1909,2011,1,11,0.14070003,-1,3,0,0,1,864,2112,1,12,0.236749371,1,1,0,1,-1,450,2013,1,13,0.224076552,-1,3,0,0,1,1216,2114,1,14,0.355431265,-1,1,1,1,1,726,2215,1,15,0.278556773,1,2,0,1,-1,1318,2116,1,16,0.25373754,-1,1,1,1,1,1102,2217,1,17,0.434506222,1,3,0,0,1,1364,2318,1,18,0.408942181,-1,2,0,1,-1,1146,2219,1,19,0.315193543,1,3,0,0,1,869,2320,1,20,0.372725629,-1,2,0,1,-1,1107,2221,1,21,0.393206156,1,2,1,0,-1,2027,2122,1,22,0.358076955,-1,3,0,0,1,2056,2223,1,23,0.561152073,-1,1,1,1,1,853,2324,1,24,0.452877805,-1,3,1,0,-1,928,2225,1,25,0.483187619,1,2,1,1,1,897,2326,1,26,0.543941561,-1,1,0,1,-1,956,2227,1,27,0.610704938,-1,2,0,1,-1,1236,2128,1,28,0.620237718,1,1,1,1,1,789,2229,1,29,0.639049655,1,3,0,0,1,1036,2330,1,30,0.668670323,1,1,1,1,1,739,2431,1,31,0.688184323,1,2,0,1,-1,934,2332,1,32,0.649346261,1,3,1,0,-1,901,2233,1,33,0.658778693,-1,2,1,1,1,823,2334,1,34,0.707915566,-1,3,0,0,1,1588,2435,1,35,0.752756822,1,1,1,1,1,596,2536,1,36,0.588924083,-1,3,0,0,1,786,2637,1,37,0.46357214,-1,2,0,1,-1,963,2538,1,38,0.432556083,-1,1,1,1,1,1187,2639,1,39,0.350324611,-1,2,1,1,1,983,2740,1,40,0.408867061,1,1,1,1,1,801,2841,1,41,0.514777965,1,1,1,1,1,998,2942,1,42,0.486636151,-1,2,0,1,-1,895,2843,1,43,0.507656963,1,3,1,0,-1,1231,2744,1,44,0.519959223,1,2,1,1,1,662,2845,1,45,0.536044411,1,1,1,1,1,1297,2946,1,46,0.62779128,1,3,0,0,1,859,3047,1,47,0.668403836,-1,1,0,1,-1,893,2948,1,48,0.659245883,1,3,0,0,1,1149,3049,1,49,0.765985581,1,2,1,1,1,642,3150,1,50,0.751650964,1,3,0,0,1,1170,3251,1,51,0.808154914,1,1,0,1,-1,694,3152,1,52,0.84968193,1,2,0,1,-1,1047,3053,1,53,0.808273868,-1,1,1,1,1,712,3154,1,54,0.792993822,1,2,0,1,-1,851,3055,1,55,0.697662545,1,3,0,0,1,1051,3156,1,56,0.677156432,1,2,1,1,1,891,3257,1,57,0.581369484,-1,1,1,1,1,733,3358,1,58,0.585956554,-1,3,0,0,1,1207,3459,1,59,0.530491032,1,1,1,1,1,848,3560,1,60,0.571525018,1,3,1,1,1,1108,3661,2,1,0.524546198,1,1,1,1,1,1357,162,2,2,0.553902954,1,2,0,1,-1,1063,063,2,3,0.585051494,-1,3,0,0,1,1016,164,2,4,0.687692052,1,2,1,1,1,1761,265,2,5,0.748669267,1,1,1,1,1,920,366,2,6,0.740485073,1,3,1,0,-1,864,267,2,7,0.754365274,1,1,0,1,-1,841,168,2,8,0.839072561,1,3,0,0,1,1393,269,2,9,0.844673407,1,2,0,1,-1,1097,170,2,10,0.741859396,1,3,0,0,1,928,271,2,11,0.755774736,1,1,1,1,1,680,372,2,12,0.703819255,1,2,0,1,-1,633,273,2,13,0.665427732,1,1,1,1,1,1032,374,2,14,0.455678717,-1,2,1,0,-1,952,275,2,15,0.482892318,-1,3,0,0,1,712,376,2,16,0.344733039,1,2,0,0,1,1249,477,2,17,0.402519226,-1,1,0,1,-1,576,378,2,18,0.291290887,-1,3,1,0,-1,752,279,2,19,0.34845297,-1,1,0,1,-1,856,180,2,20,0.328320255,-1,3,0,0,1,1280,281,2,21,0.382430699,-1,2,0,0,1,1233,382,2,22,0.40257454,1,3,0,0,1,1080,483,2,23,0.331136409,-1,1,1,1,1,1688,584,2,24,0.248488877,-1,3,1,0,-1,4898,485,2,25,0.250230173,-1,2,0,0,1,1504,586,2,26,0.303556433,-1,1,1,1,1,666,687,2,27,0.502278613,-1,2,1,0,-1,1624,588,2,28,0.566940396,-1,1,1,1,1,1384,689,2,29,0.495399022,-1,3,0,0,1,816,790,2,30,0.486088128,-1,1,0,1,-1,928,691,2,31,0.48181003,-1,2,0,0,1,969,792,2,32,0.503503179,1,3,0,0,1,768,893,2,33,0.589619368,1,2,1,1,1,1361,994,2,34,0.531790628,1,3,0,0,1,880,1095,2,35,0.536754632,1,1,1,1,1,585,1196,2,36,0.395611852,-1,3,0,0,1,841,1297,2,37,0.547330942,-1,2,0,0,1,624,1398,2,38,0.591032451,1,1,1,1,1,776,1499,2,39,0.678940192,1,2,1,0,-1,1190,13100,2,40,0.532857458,-1,1,1,1,1,787,14101,2,41,0.630085959,1,3,0,0,1,736,15102,2,42,0.634349943,-1,1,1,1,1,673,16103,2,43,0.513741419,1,2,1,1,1,1352,17104,2,44,0.434617307,1,1,1,1,1,744,18105,2,45,0.308843773,-1,3,0,0,1,736,19106,2,46,0.408411307,-1,2,1,0,-1,904,18107,2,47,0.313636368,-1,3,0,0,1,712,19108,2,48,0.279271389,-1,2,0,0,1,1634,20109,2,49,0.323781828,-1,1,1,1,1,744,21110,2,50,0.375155161,-1,2,1,1,1,1688,22111,2,51,0.362875893,1,3,0,0,1,896,23112,2,52,0.404462604,-1,1,0,1,-1,641,22113,2,53,0.480750027,1,3,1,0,-1,696,21114,2,54,0.409551825,-1,1,1,1,1,665,22115,2,55,0.407868072,-1,2,1,0,-1,984,21116,2,56,0.35589211,1,1,1,1,1,625,22117,2,57,0.417537815,1,3,0,0,1,840,23118,2,58,0.396692073,-1,2,0,0,1,1281,24119,2,59,0.422009084,-1,3,1,0,-1,735,23120,2,60,0.463926749,1,2,1,1,1,1224,24121,3,1,0.575569853,1,1,0,1,-1,1760,0122,3,2,0.637270266,-1,2,1,1,1,1161,1123,3,3,0.709174295,1,3,0,0,1,877,2124,3,4,0.605532477,1,2,1,1,1,1045,3125,3,5,0.661764299,-1,1,1,1,1,718,4126,3,6,0.671388442,-1,3,1,0,-1,702,3127,3,7,0.723100222,-1,1,1,1,1,638,4128,3,8,0.82858468,1,3,0,0,1,1519,5129,3,9,0.836460198,1,2,0,1,-1,567,4130,3,10,0.835692813,-1,3,0,0,1,2215,5131,3,11,0.711358898,1,1,1,1,1,489,6132,3,12,0.65790269,1,2,1,1,1,651,7133,3,13,0.532787433,-1,1,0,1,-1,712,6134,3,14,0.492214347,-1,2,0,1,-1,518,5135,3,15,0.510926211,-1,3,0,0,1,593,6136,3,16,0.583948975,1,2,1,1,1,639,7137,3,17,0.467300017,1,1,0,1,-1,515,6138,3,18,0.440486465,-1,3,0,0,1,760,7139,3,19,0.504207728,1,1,1,1,1,901,8140,3,20,0.520993381,1,3,0,0,1,999,9141,3,21,0.459299926,-1,3,0,1,-1,1950,8142,3,22,0.592885947,1,1,1,1,1,1376,9143,3,23,0.612988765,-1,2,0,1,-1,1255,8144,3,24,0.473665466,1,1,0,1,-1,1208,7145,3,25,0.487956099,-1,3,1,0,-1,2348,6146,3,26,0.613469306,1,2,1,1,1,1205,7147,3,27,0.604891063,1,3,0,0,1,1244,8148,3,28,0.688300729,-1,2,0,1,-1,1584,7149,3,29,0.627311069,1,1,1,1,1,1459,8150,3,30,0.706901956,1,2,0,1,-1,1325,7151,3,31,0.636901756,1,3,0,0,1,1139,8152,3,32,0.528549587,-1,1,1,1,1,1182,9153,3,33,0.505924359,-1,3,0,0,1,1645,10154,3,34,0.443236984,-1,1,0,1,-1,1571,9155,3,35,0.30550134,-1,2,0,1,-1,1194,8156,3,36,0.350832024,-1,1,1,1,1,1128,9157,3,37,0.339890642,-1,3,0,0,1,1801,10158,3,38,0.245798408,-1,2,0,1,-1,388,9159,3,39,0.273999176,1,3,1,0,-1,1542,8160,3,40,0.181726028,1,2,0,1,-1,355,7161,3,41,0.207986635,-1,2,1,1,1,855,8162,3,42,0.207218206,1,3,0,0,1,1426,9163,3,43,0.293098107,1,1,1,1,1,471,10164,3,44,0.27794983,1,3,0,0,1,1188,11165,3,45,0.258658416,-1,2,0,1,-1,379,10166,3,46,0.247900428,-1,1,1,1,1,1299,11167,3,47,0.356436387,-1,2,1,0,-1,1236,10168,3,48,0.27817363,-1,1,1,1,1,648,11169,3,49,0.266466655,-1,3,0,1,-1,1754,10170,3,50,0.442206931,1,1,1,1,1,1086,11171,3,51,0.383814393,1,2,1,1,1,877,12172,3,52,0.457739939,-1,3,1,1,1,1446,13173,3,53,0.354212432,1,2,1,1,1,817,14174,3,54,0.211216243,-1,3,1,0,-1,1202,13175,3,55,0.340855748,1,1,1,1,1,1342,14176,3,56,0.308592648,-1,3,0,0,1,1062,15177,3,57,0.334094216,1,2,0,1,-1,1850,14178,3,58,0.280781879,-1,1,1,1,1,1174,15179,3,59,0.326678003,1,2,1,1,1,1036,16180,3,60,0.236569302,-1,1,1,1,1,1265,17181,4,1,0.44942144,-1,3,0,0,1,1762,17182,4,2,0.459620386,1,1,1,1,1,1151,18183,4,3,0.486730269,1,2,1,1,1,980,19184,4,4,0.656961938,-1,1,1,1,1,968,20185,4,5,0.732238631,1,3,0,0,1,1652,21186,4,6,0.764631279,-1,2,0,1,-1,1444,20187,4,7,0.872166984,-1,3,0,0,1,891,21188,4,8,0.816173694,-1,2,1,1,1,849,22189,4,9,0.868649115,1,1,1,1,1,1000,23190,4,10,0.826936488,1,2,1,1,1,815,24191,4,11,0.888117246,1,3,0,0,1,699,25192,4,12,0.885594609,1,1,1,1,1,1432,26193,4,13,0.851549495,1,3,0,0,1,695,27194,4,14,0.827864321,1,1,1,1,1,888,28195,4,15,0.791928538,1,2,0,1,-1,667,27196,4,16,0.816435649,1,1,1,1,1,943,28197,4,17,0.696542083,1,3,1,0,-1,899,27198,4,18,0.66965401,-1,2,1,1,1,881,28199,4,19,0.617715822,1,3,0,0,1,1252,29200,4,20,0.655202164,1,2,0,1,-1,1090,28201,4,21,0.505086552,-1,2,1,1,1,1685,29202,4,22,0.460853489,1,3,0,0,1,1015,30203,4,23,0.373279508,-1,1,0,1,-1,850,29204,4,24,0.341168421,-1,3,1,0,-1,1712,28205,4,25,0.357985693,-1,2,1,1,1,2060,29206,4,26,0.320265318,1,1,0,1,-1,873,28207,4,27,0.204492007,-1,2,1,1,1,800,29208,4,28,0.154789709,-1,1,1,1,1,1510,30209,4,29,0.17415669,-1,3,0,0,1,654,31210,4,30,0.198692107,-1,1,0,1,-1,892,30211,4,31,0.167771647,-1,2,0,1,-1,642,29212,4,32,0.193632051,-1,3,0,0,1,636,30213,4,33,0.136864221,-1,2,0,1,-1,2024,29214,4,34,0.126509085,-1,3,0,0,1,716,30215,4,35,0.215128338,-1,1,1,1,1,1268,31216,4,36,0.155463204,-1,3,0,0,1,1588,32217,4,37,0.191312333,1,2,1,1,1,1303,33218,4,38,0.29296826,1,1,1,1,1,2199,34219,4,39,0.293771321,-1,2,1,1,1,1549,35220,4,40,0.310326994,1,1,1,1,1,892,36221,4,41,0.390033448,-1,1,1,1,1,692,37222,4,42,0.399082122,1,2,0,1,-1,1087,36223,4,43,0.451337679,1,3,1,0,-1,630,35224,4,44,0.534847415,1,2,1,0,-1,1037,34225,4,45,0.510483058,1,1,1,1,1,675,35226,4,46,0.501945913,-1,3,0,0,1,743,36227,4,47,0.557382229,-1,1,1,1,1,1937,37228,4,48,0.624505064,-1,3,1,0,-1,1221,36229,4,49,0.607065101,-1,2,0,1,-1,725,35230,4,50,0.558408551,-1,3,0,1,-1,992,34231,4,51,0.520912452,1,1,1,1,1,910,35232,4,52,0.565393978,-1,2,0,1,-1,746,34233,4,53,0.576771622,1,1,0,1,-1,755,33234,4,54,0.567357508,1,2,0,1,-1,1723,32235,4,55,0.60895176,1,3,1,0,-1,805,31236,4,56,0.61176827,-1,2,0,0,1,800,32237,4,57,0.664655944,-1,1,0,0,1,756,33238,4,58,0.714316962,1,3,0,1,-1,698,32239,4,59,0.772686303,-1,1,1,1,1,631,33240,4,60,0.64170598,1,3,0,0,1,1631,34241,5,1,0.509454909,NaN,1,NaN,NaN,NaN,NaN,18242,5,2,0.547867719,-1,2,1,1,1,1093,19243,5,3,0.493123313,-1,3,1,0,-1,1218,18244,5,4,0.508836705,-1,2,1,1,1,1044,19245,5,5,0.564543435,1,1,1,1,1,940,20246,5,6,0.620487594,-1,3,1,0,-1,953,19247,5,7,0.69154624,-1,1,1,1,1,817,20248,5,8,0.755032906,1,3,0,0,1,950,21249,5,9,0.819106113,1,2,1,1,1,1006,22250,5,10,0.813200729,-1,3,0,0,1,964,23251,5,11,0.815379791,1,1,1,1,1,753,24252,5,12,0.82795334,1,2,0,1,-1,1178,23253,5,13,0.787079755,1,1,0,1,-1,906,22254,5,14,0.753628248,1,2,0,0,1,1553,23255,5,15,0.71556496,1,3,0,0,1,962,24256,5,16,0.619979262,1,2,0,0,1,1040,25257,5,17,0.419555513,-1,1,1,1,1,831,26258,5,18,0.338665394,-1,3,0,0,1,1495,27259,5,19,0.182023431,1,1,0,1,-1,688,26260,5,20,0.117565961,-1,3,1,0,-1,903,25261,5,21,0.100779006,-1,3,0,1,-1,1051,24262,5,22,0.168395379,-1,1,1,1,1,798,25263,5,23,0.15948384,-1,2,0,1,-1,1599,24264,5,24,0.172663479,1,1,1,1,1,931,25265,5,25,0.156714338,-1,3,0,0,1,816,26266,5,26,0.192696435,-1,2,0,1,-1,834,25267,5,27,0.198347073,-1,3,0,0,1,710,26268,5,28,0.146070878,-1,2,1,0,-1,1201,25269,5,29,0.232202779,-1,1,0,1,-1,757,24270,5,30,0.357181342,-1,2,1,0,-1,945,23271,5,31,0.438840772,1,3,1,0,-1,953,22272,5,32,0.439730865,-1,1,0,1,-1,553,21273,5,33,0.479806759,-1,3,0,0,1,1311,22274,5,34,0.602118129,-1,1,0,1,-1,1531,21275,5,35,0.540603397,-1,2,0,1,-1,1558,20276,5,36,0.443392798,1,1,1,1,1,965,21277,5,37,0.487610223,1,3,1,0,-1,924,20278,5,38,0.492896177,-1,2,0,1,-1,1036,19279,5,39,0.528613942,1,3,0,0,1,1308,20280,5,40,0.54488713,-1,2,1,0,-1,1376,19281,5,41,0.595708807,-1,2,1,1,1,1117,20282,5,42,0.617948772,1,3,0,1,-1,1523,19283,5,43,0.62873756,1,1,1,1,1,815,20284,5,44,0.591678015,-1,3,0,0,1,694,21285,5,45,0.532781067,-1,2,0,0,1,1207,22286,5,46,0.655851849,1,1,1,1,1,706,23287,5,47,0.725252194,-1,2,1,0,-1,851,22288,5,48,0.707239489,-1,1,1,1,1,1387,23289,5,49,0.51523748,1,3,0,0,1,1018,24290,5,50,0.631812264,1,1,1,1,1,800,25291,5,51,0.58827138,-1,2,0,0,1,974,26292,5,52,0.501552412,-1,3,0,0,1,716,27293,5,53,0.410368671,1,2,1,0,-1,992,26294,5,54,0.487429472,-1,3,0,1,-1,579,25295,5,55,0.458818099,1,1,1,1,1,795,26296,5,56,0.555076069,1,3,0,0,1,773,27297,5,57,0.5530475,1,2,1,0,-1,1193,26298,5,58,0.554079005,-1,1,1,1,1,780,27299,5,59,0.567991051,-1,2,0,1,-1,1093,26300,5,60,0.504880327,1,1,1,1,1,1159,27301,6,1,0.514891625,-1,3,0,1,-1,2240,-1302,6,2,0.433126712,-1,1,1,1,1,1600,0303,6,3,0.498686975,-1,2,1,1,1,2216,1304,6,4,0.496204736,-1,1,1,1,1,1553,2305,6,5,0.393227004,-1,3,0,0,1,1846,3306,6,6,0.274986555,-1,2,1,1,1,1260,4307,6,7,0.281554813,-1,3,0,0,1,1700,5308,6,8,0.223133713,1,2,0,1,-1,1153,4309,6,9,0.236828883,1,1,0,1,-1,1108,3310,6,10,0.248406118,-1,2,0,1,-1,1308,2311,6,11,0.228065374,-1,3,0,0,1,1587,3312,6,12,0.204818414,-1,1,1,1,1,1126,4313,6,13,0.291384157,1,3,1,0,-1,1273,3314,6,14,0.289631571,-1,1,0,1,-1,1815,2315,6,15,0.217611544,-1,2,0,1,-1,1222,1316,6,16,0.136266182,-1,1,1,1,1,1134,2317,6,17,0.16457491,-1,3,1,0,-1,1109,1318,6,18,0.203736091,-1,2,1,0,-1,1991,0319,6,19,0.196895606,-1,3,0,0,1,1519,1320,6,20,0.216447545,-1,2,1,1,1,1057,2321,6,21,0.219548893,-1,1,1,1,1,1469,3322,6,22,0.132030836,1,2,1,1,1,926,4323,6,23,0.244461947,-1,3,1,0,-1,1818,3324,6,24,0.341082048,-1,2,0,1,-1,875,2325,6,25,0.351232608,1,1,0,1,-1,942,1326,6,26,0.521697892,1,3,0,1,-1,2446,0327,6,27,0.465871197,-1,1,1,1,1,1352,1328,6,28,0.43515791,-1,3,0,0,1,1229,2329,6,29,0.403469116,-1,2,1,0,-1,1159,1330,6,30,0.528826727,1,3,0,0,1,1075,2331,6,31,0.43095513,1,1,1,1,1,1346,3332,6,32,0.41827846,1,2,0,1,-1,865,2333,6,33,0.553575245,1,1,1,1,1,1218,3334,6,34,0.484451655,1,2,1,1,1,1041,4335,6,35,0.616206426,-1,3,0,0,1,949,5336,6,36,0.798844381,1,2,1,0,-1,1380,4337,6,37,0.823479921,1,1,1,1,1,934,5338,6,38,0.744057124,1,3,0,0,1,1304,6339,6,39,0.789451802,1,1,1,1,1,1561,7340,6,40,0.803402855,1,3,1,0,-1,1807,6341,6,41,0.81772193,-1,2,0,1,-1,995,5342,6,42,0.853669682,1,3,0,0,1,1640,6343,6,43,0.845264974,1,1,0,1,-1,1011,5344,6,44,0.8199373,1,3,1,0,-1,1582,4345,6,45,0.765238403,1,2,0,0,1,1412,5346,6,46,0.748953655,1,1,1,1,1,1131,6347,6,47,0.762898698,1,2,1,1,1,994,7348,6,48,0.736207668,1,1,1,1,1,1193,8349,6,49,0.662263665,1,3,0,0,1,1151,9350,6,50,0.589137906,-1,1,1,1,1,1115,10351,6,51,0.597612156,1,2,0,1,-1,944,9352,6,52,0.536562309,-1,3,0,0,1,1014,10353,6,53,0.552082299,-1,2,0,1,-1,1013,9354,6,54,0.540933078,1,3,0,0,1,1127,10355,6,55,0.473457961,-1,1,0,1,-1,870,9356,6,56,0.433331638,-1,3,0,0,1,1146,10357,6,57,0.418205388,-1,2,1,1,1,1082,11358,6,58,0.576341782,1,1,1,1,1,766,12359,6,59,0.602519054,-1,2,0,1,-1,1053,11360,6,60,0.553741788,1,1,1,1,1,798,12361,7,1,0.401796891,-1,1,1,1,1,1061,-13362,7,2,0.485015865,1,2,0,1,-1,1142,-14363,7,3,0.496499474,-1,3,0,0,1,736,-13364,7,4,0.382218899,1,2,1,1,1,631,-12365,7,5,0.249810245,-1,1,0,1,-1,727,-13366,7,6,0.305052759,1,3,0,0,1,813,-12367,7,7,0.326379466,-1,1,1,1,1,990,-11368,7,8,0.387198689,-1,3,0,0,1,953,-10369,7,9,0.393189637,-1,2,0,0,1,930,-9370,7,10,0.323493475,1,3,0,0,1,897,-8371,7,11,0.410946148,-1,1,1,1,1,734,-7372,7,12,0.33948238,-1,2,0,0,1,766,-6373,7,13,0.389593619,-1,1,1,1,1,759,-5374,7,14,0.3523293,-1,2,1,0,-1,783,-6375,7,15,0.291665013,1,3,0,0,1,799,-5376,7,16,0.332012892,-1,2,0,1,-1,631,-6377,7,17,0.312481421,1,1,0,1,-1,697,-7378,7,18,0.387590205,-1,3,0,0,1,784,-6379,7,19,0.456264315,1,1,1,1,1,682,-5380,7,20,0.507222991,-1,3,0,0,1,776,-4381,7,21,0.462598766,-1,2,0,1,-1,795,-5382,7,22,0.517840703,-1,3,0,0,1,732,-4383,7,23,0.46288785,1,1,1,1,1,614,-3384,7,24,0.618516442,1,3,0,0,1,727,-2385,7,25,0.709973169,1,2,1,0,-1,714,-3386,7,26,0.766462984,1,1,1,1,1,572,-2387,7,27,0.774770103,1,2,1,0,-1,871,-3388,7,28,0.751636573,1,1,1,1,1,789,-2389,7,29,0.807559299,1,3,0,0,1,501,-1390,7,30,0.861079987,1,1,0,1,-1,685,-2391,7,31,0.848873841,1,2,0,0,1,863,-1392,7,32,0.757705874,-1,3,0,0,1,690,0393,7,33,0.780536747,-1,2,1,1,1,873,1394,7,34,0.834214331,1,3,0,0,1,673,2395,7,35,0.86037409,1,1,0,1,-1,637,1396,7,36,0.671306765,1,3,1,0,-1,710,0397,7,37,0.689581011,1,2,1,0,-1,722,-1398,7,38,0.689361534,1,1,1,1,1,625,0399,7,39,0.682605433,1,2,0,1,-1,739,-1400,7,40,0.634099925,-1,1,0,1,-1,647,-2401,7,41,0.731813899,1,3,0,0,1,637,-1402,7,42,0.70634271,-1,1,1,1,1,666,0403,7,43,0.708626585,-1,2,1,1,1,719,1404,7,44,0.542859431,1,1,1,1,1,712,2405,7,45,0.431847218,1,3,1,0,-1,679,1406,7,46,0.508966496,1,2,1,0,-1,735,0407,7,47,0.420167253,1,3,0,0,1,830,1408,7,48,0.484593472,1,2,1,1,1,865,2409,7,49,0.438954778,1,1,1,1,1,601,3410,7,50,0.362464492,1,2,0,1,-1,718,2411,7,51,0.354096117,1,3,1,0,-1,636,1412,7,52,0.23079669,1,1,1,1,1,641,2413,7,53,0.244747394,1,3,0,0,1,577,3414,7,54,0.219232526,-1,1,1,1,1,678,4415,7,55,0.330791883,1,2,0,0,1,746,5416,7,56,0.442755464,-1,1,1,1,1,640,6417,7,57,0.512168649,1,3,1,0,-1,658,5418,7,58,0.612598476,1,2,0,1,-1,706,4419,7,59,0.746808089,-1,3,1,0,-1,679,3420,7,60,0.829474524,1,2,1,0,-1,774,2421,8,1,0.482036309,1,2,0,1,-1,2130,3422,8,2,0.532390721,1,3,0,0,1,1386,4423,8,3,0.511580429,1,1,1,1,1,1361,5424,8,4,0.528184154,-1,3,0,0,1,2072,6425,8,5,0.512577163,-1,2,1,0,-1,2411,5426,8,6,0.446249456,1,1,1,1,1,1515,6427,8,7,0.355410684,-1,2,1,1,1,2801,7428,8,8,0.37748682,-1,1,1,1,1,1453,8429,8,9,0.400234192,-1,3,0,0,1,1841,9430,8,10,0.342650771,1,1,1,1,1,1465,10431,8,11,0.246652949,-1,2,1,0,-1,1545,9432,8,12,0.243036052,1,3,0,0,1,1969,10433,8,13,0.291610777,1,2,1,1,1,1303,11434,8,14,0.199278145,-1,3,0,0,1,952,12435,8,15,0.178900857,-1,1,0,1,-1,2119,11436,8,16,0.266476152,-1,3,1,0,-1,1904,10437,8,17,0.172345763,-1,2,1,0,-1,1270,9438,8,18,0.144323269,-1,1,1,1,1,1171,10439,8,19,0.139002591,-1,2,0,0,1,2369,11440,8,20,0.158329921,-1,1,0,1,-1,1678,10441,8,21,0.175600072,-1,1,1,1,1,1876,11442,8,22,0.12196027,-1,2,0,0,1,1438,12443,8,23,0.336843075,-1,3,0,0,1,1572,13444,8,24,0.491441518,-1,2,1,0,-1,1970,12445,8,25,0.468562577,1,1,1,1,1,951,13446,8,26,0.528247958,-1,3,0,0,1,1656,14447,8,27,0.603276744,1,1,1,0,-1,1813,13448,8,28,0.632021346,1,3,1,0,-1,1969,12449,8,29,0.661720637,1,2,0,1,-1,1001,11450,8,30,0.577510945,1,3,0,1,-1,1685,10451,8,31,0.668845908,1,1,1,1,1,1207,11452,8,32,0.599920244,1,2,0,0,1,1454,12453,8,33,0.709743399,1,1,1,1,1,2200,13454,8,34,0.838518388,1,2,1,0,-1,1694,12455,8,35,0.665687687,1,3,1,1,1,1530,13456,8,36,0.623218624,1,2,1,0,-1,1485,12457,8,37,0.499762408,-1,1,1,1,1,907,13458,8,38,0.578239767,-1,3,0,0,1,1833,14459,8,39,0.631522514,1,1,1,0,-1,1811,13460,8,40,0.622299685,1,3,0,0,1,1100,14461,8,41,0.509852258,1,3,1,1,1,2237,15462,8,42,0.55259666,1,1,0,1,-1,1095,14463,8,43,0.512492727,-1,2,0,0,1,1691,15464,8,44,0.592878974,1,1,0,1,-1,1405,14465,8,45,0.684166798,1,3,0,0,1,1755,15466,8,46,0.751528748,1,2,1,0,-1,1970,14467,8,47,0.666609871,1,3,0,1,-1,1485,13468,8,48,0.571099154,NaN,2,NaN,NaN,NaN,NaN,13469,8,49,0.639758323,-1,1,0,1,-1,2814,12470,8,50,0.64383227,1,2,0,0,1,677,13471,8,51,0.596593628,-1,3,0,0,1,1999,14472,8,52,0.513677244,1,1,1,1,1,2295,15473,8,53,0.445012167,-1,3,0,1,-1,1611,14474,8,54,0.415797117,1,1,1,0,-1,2511,13475,8,55,0.421824496,-1,2,0,0,1,1640,14476,8,56,0.472451896,-1,1,1,1,1,1598,15477,8,57,0.436463088,1,3,0,0,1,3006,16478,8,58,0.389796717,-1,2,0,0,1,1377,17479,8,59,0.398704293,1,3,1,1,1,4064,18480,8,60,0.277430038,-1,2,0,0,1,3609,19481,9,1,0.515666815,1,3,1,0,-1,3149,3482,9,2,0.522798375,1,1,0,1,-1,1892,2483,9,3,0.619540028,1,2,1,1,1,935,3484,9,4,0.603511261,1,1,1,1,1,1010,4485,9,5,0.545009651,-1,3,0,0,1,1103,5486,9,6,0.440399356,-1,2,0,1,-1,783,4487,9,7,0.430283391,-1,3,0,0,1,797,5488,9,8,0.486967809,-1,2,1,1,1,771,6489,9,9,0.405238466,1,1,0,1,-1,883,5490,9,10,0.38026866,1,2,1,1,1,719,6491,9,11,0.39106031,-1,3,0,0,1,712,7492,9,12,0.557652652,1,1,1,1,1,814,8493,9,13,0.622140167,1,3,0,0,1,1285,9494,9,14,0.492462981,-1,1,1,1,1,702,10495,9,15,0.493387484,-1,2,1,1,1,784,11496,9,16,0.588712428,-1,1,0,1,-1,871,10497,9,17,0.590826525,1,3,1,0,-1,673,9498,9,18,0.560975631,1,2,1,1,1,529,10499,9,19,0.653565641,1,3,0,1,-1,1114,9500,9,20,0.649883158,1,2,0,1,-1,824,8501,9,21,0.590800698,1,2,0,1,-1,643,7502,9,22,0.641299756,-1,3,0,1,-1,384,6503,9,23,0.649190357,-1,1,0,1,-1,636,5504,9,24,0.651032814,-1,3,0,0,1,982,6505,9,25,0.747789625,1,2,1,1,1,429,7506,9,26,0.852305912,1,1,1,1,1,548,8507,9,27,0.892169738,1,2,0,1,-1,692,7508,9,28,0.863146539,1,1,1,1,1,904,8509,9,29,0.892702827,1,3,0,0,1,556,9510,9,30,0.883304548,1,1,0,1,-1,719,8511,9,31,0.896531157,1,2,1,1,1,798,9512,9,32,0.61609391,1,3,0,0,1,646,10513,9,33,0.579425399,-1,2,1,1,1,767,11514,9,34,0.435781243,-1,3,1,0,-1,729,10515,9,35,0.450393794,-1,1,1,1,1,587,11516,9,36,0.449812602,1,3,0,0,1,736,12517,9,37,0.554551697,-1,2,0,1,-1,697,11518,9,38,0.524881687,-1,1,1,1,1,1001,12519,9,39,0.533797595,1,2,0,1,-1,813,11520,9,40,0.43238232,-1,1,1,1,1,809,12521,9,41,0.515422278,-1,1,1,1,1,749,13522,9,42,0.482068756,-1,2,0,1,-1,742,12523,9,43,0.401959548,-1,3,0,0,1,712,13524,9,44,0.233218772,-1,2,1,1,1,962,14525,9,45,0.148018146,-1,1,1,1,1,763,15526,9,46,0.18469681,1,3,0,0,1,1951,16527,9,47,0.201568963,-1,1,1,1,1,697,17528,9,48,0.142892211,-1,3,0,0,1,650,18529,9,49,0.181277369,-1,2,1,1,1,709,19530,9,50,0.154520501,1,3,1,0,-1,704,18531,9,51,0.13059547,-1,1,1,1,1,630,19532,9,52,0.101307957,-1,2,0,1,-1,622,18533,9,53,0.103418658,-1,1,1,1,1,695,19534,9,54,0.155471597,1,2,0,1,-1,718,18535,9,55,0.189924099,1,3,0,0,1,877,19536,9,56,0.156666612,-1,2,0,1,-1,749,18537,9,57,0.283238636,-1,1,1,1,1,845,19538,9,58,0.229420629,-1,3,0,0,1,842,20539,9,59,0.112231161,-1,1,1,1,1,1264,21540,9,60,0.230258302,-1,3,1,0,-1,794,20541,11,1,0.449469316,-1,3,1,1,1,2137,7542,11,2,0.36639395,1,1,1,1,1,1440,8543,11,3,0.409154685,-1,2,1,1,1,842,9544,11,4,0.561359767,1,1,0,1,-1,776,8545,11,5,0.601438655,1,3,1,0,-1,1010,7546,11,6,0.51088328,-1,2,0,1,-1,781,6547,11,7,0.516877691,-1,3,0,1,-1,316,5548,11,8,0.502431326,-1,2,1,1,1,285,6549,11,9,0.441582474,-1,1,0,1,-1,824,5550,11,10,0.357544161,-1,2,0,1,-1,255,4551,11,11,0.287752556,-1,3,0,1,-1,272,3552,11,12,0.356916823,1,1,1,1,1,648,4553,11,13,0.263939318,1,3,0,0,1,616,5554,11,14,0.26530526,-1,1,1,1,1,806,6555,11,15,0.188001865,-1,2,0,1,-1,734,5556,11,16,0.161160568,-1,1,1,1,1,1297,6557,11,17,0.113709866,-1,3,1,0,-1,698,5558,11,18,0.422820831,-1,2,1,1,1,512,6559,11,19,0.338843605,-1,3,0,0,1,773,7560,11,20,0.303384329,1,2,0,1,-1,475,6561,11,21,0.233913643,-1,2,1,1,1,716,7562,11,22,0.228820631,-1,3,0,0,1,694,8563,11,23,0.175341555,-1,1,1,1,1,1801,9564,11,24,0.299245864,1,3,0,0,1,2513,10565,11,25,0.248472106,-1,2,1,1,1,1462,11566,11,26,0.218770825,-1,1,1,1,1,602,12567,11,27,0.251704253,1,2,1,1,1,866,13568,11,28,0.382371047,-1,1,1,1,1,628,14569,11,29,0.522836558,-1,3,0,0,1,459,15570,11,30,0.436410007,1,1,1,1,1,1043,16571,11,31,0.480795684,1,2,0,1,-1,638,15572,11,32,0.441646444,1,3,0,0,1,603,16573,11,33,0.47767926,1,2,1,1,1,1030,17574,11,34,0.486200849,-1,3,1,0,-1,714,16575,11,35,0.600133938,1,1,0,1,-1,618,15576,11,36,0.519640096,1,3,0,0,1,623,16577,11,37,0.53446383,1,2,1,1,1,589,17578,11,38,0.599435103,-1,1,1,1,1,1656,18579,11,39,0.660745836,1,2,0,1,-1,4871,17580,11,40,0.62055263,1,1,0,1,-1,589,16581,11,41,0.744312843,-1,1,1,1,1,564,17582,11,42,0.731285688,1,2,1,0,-1,1337,16583,11,43,0.725717519,1,3,1,0,-1,820,15584,11,44,0.69841139,1,2,0,1,-1,529,14585,11,45,0.701058531,1,1,1,1,1,703,15586,11,46,0.586367841,1,3,0,0,1,842,16587,11,47,0.577530887,1,1,1,1,1,671,17588,11,48,0.58925203,-1,3,0,0,1,660,18589,11,49,0.558194673,-1,2,0,1,-1,695,17590,11,50,0.645118264,-1,3,0,1,-1,1128,16591,11,51,0.648938547,1,1,1,1,1,616,17592,11,52,0.740368999,1,2,1,1,1,678,18593,11,53,0.789275491,-1,1,1,1,1,756,19594,11,54,0.815204076,1,2,0,1,-1,632,18595,11,55,0.746053352,1,3,0,0,1,663,19596,11,56,0.612499215,1,2,0,0,1,1320,20597,11,57,0.598178759,1,1,1,1,1,517,21598,11,58,0.653226375,-1,3,0,0,1,657,22599,11,59,0.640721515,-1,1,0,1,-1,678,21600,11,60,0.657204262,1,3,0,0,1,560,22601,12,1,0.530195008,-1,2,1,1,1,984,-2602,12,2,0.561599966,-1,3,0,0,1,746,-1603,12,3,0.44101442,-1,1,0,1,-1,1312,-2604,12,4,0.474899167,1,3,0,0,1,679,-1605,12,5,0.517655582,1,2,0,1,-1,713,-2606,12,6,0.51632274,1,1,1,1,1,885,-1607,12,7,0.554758667,1,2,0,1,-1,722,-2608,12,8,0.696172113,1,1,1,1,1,896,-1609,12,9,0.550045793,1,3,1,0,-1,678,-2610,12,10,0.39918301,-1,1,1,1,1,1022,-1611,12,11,0.402943556,-1,2,0,1,-1,897,-2612,12,12,0.24786875,-1,3,0,0,1,630,-1613,12,13,0.22532359,-1,2,1,0,-1,700,-2614,12,14,0.246074244,-1,3,0,0,1,652,-1615,12,15,0.218948835,-1,1,1,1,1,807,0616,12,16,0.135008952,-1,3,0,0,1,1278,1617,12,17,0.11929836,-1,2,0,0,1,781,2618,12,18,0.162865758,-1,1,0,1,-1,670,1619,12,19,0.230662006,-1,2,0,0,1,885,2620,12,20,0.1767262,-1,1,1,1,1,553,3621,12,21,0.267436805,-1,1,1,1,1,675,4622,12,22,0.301921795,-1,2,1,0,-1,1609,3623,12,23,0.438566404,-1,3,1,0,-1,637,2624,12,24,0.445145175,-1,2,0,0,1,653,3625,12,25,0.505608157,-1,1,1,1,1,758,4626,12,26,0.424527011,1,3,1,0,-1,612,3627,12,27,0.597354445,1,1,0,1,-1,719,2628,12,28,0.471343786,-1,3,0,0,1,583,3629,12,29,0.33558524,1,2,1,0,-1,861,2630,12,30,0.362177162,-1,3,0,0,1,731,3631,12,31,0.250240941,-1,1,1,1,1,542,4632,12,32,0.271050433,-1,2,1,1,1,1454,5633,12,33,0.317765858,-1,1,1,1,1,778,6634,12,34,0.296330054,1,2,0,1,-1,1368,5635,12,35,0.239483276,1,3,0,0,1,654,6636,12,36,0.232590246,1,2,1,0,-1,1224,5637,12,37,0.309409027,1,1,0,1,-1,581,4638,12,38,0.598712363,1,3,1,0,-1,673,3639,12,39,0.668260353,1,1,1,1,1,824,4640,12,40,0.720088604,1,3,0,0,1,615,5641,12,41,0.708380272,-1,3,0,0,1,579,6642,12,42,0.7811666,1,1,0,1,-1,2152,5643,12,43,0.793089634,1,2,1,1,1,943,6644,12,44,0.777117953,-1,1,1,1,1,638,7645,12,45,0.835697092,1,3,1,0,-1,516,6646,12,46,0.862679884,1,2,0,0,1,1137,7647,12,47,0.811850096,1,3,0,0,1,714,8648,12,48,0.821371356,1,2,0,1,-1,1903,7649,12,49,0.822003468,-1,1,1,1,1,811,8650,12,50,0.882649521,1,2,0,0,1,1194,9651,12,51,0.853350392,1,3,0,0,1,739,10652,12,52,0.873802372,1,1,1,1,1,718,11653,12,53,0.775072219,1,3,0,0,1,704,12654,12,54,0.767065308,-1,1,1,1,1,673,13655,12,55,0.727090414,1,2,1,1,1,1042,14656,12,56,0.737376833,1,1,1,1,1,900,15657,12,57,0.693963585,1,3,0,0,1,580,16658,12,58,0.749457889,-1,2,1,1,1,1019,17659,12,59,0.62486874,-1,3,0,0,1,445,18660,12,60,0.610219016,1,2,1,1,1,1519,19661,13,1,0.456720292,1,1,0,1,-1,3593,-4662,13,2,0.350187985,-1,2,0,1,-1,2661,-5663,13,3,0.290213881,-1,3,1,0,-1,2824,-6664,13,4,0.265715779,-1,2,1,1,1,2917,-5665,13,5,0.384035849,-1,1,0,1,-1,920,-6666,13,6,0.418558856,-1,3,0,1,-1,695,-7667,13,7,0.528066498,-1,1,1,1,1,792,-6668,13,8,0.471442735,1,3,0,0,1,4297,-5669,13,9,0.514537673,-1,2,0,1,-1,2351,-6670,13,10,0.48769023,1,3,1,0,-1,1967,-7671,13,11,0.494071967,-1,1,1,1,1,1617,-6672,13,12,0.623623608,1,2,0,1,-1,2239,-7673,13,13,0.647792056,-1,1,0,1,-1,1055,-8674,13,14,0.721786545,1,2,1,0,-1,3528,-9675,13,15,0.882817617,1,3,1,0,-1,1960,-10676,13,16,0.745385795,1,2,1,0,-1,912,-11677,13,17,0.809799325,1,1,1,1,1,1983,-10678,13,18,0.820469338,1,3,1,1,1,664,-9679,13,19,0.837938895,1,1,1,1,1,640,-8680,13,20,0.844851427,1,3,0,1,-1,631,-9681,13,21,0.869106387,1,2,1,1,1,560,-8682,13,22,0.840030414,1,3,0,1,-1,566,-9683,13,23,0.799789231,1,1,1,1,1,640,-8684,13,24,0.69650073,1,3,0,0,1,2167,-7685,13,25,0.565371168,-1,2,0,1,-1,1769,-8686,13,26,0.581312007,1,1,0,1,-1,967,-9687,13,27,0.520785879,1,2,1,1,1,570,-8688,13,28,0.705569941,1,1,1,0,-1,2109,-9689,13,29,0.785842104,1,3,0,0,1,1135,-8690,13,30,0.820246985,1,1,1,1,1,3313,-7691,13,31,0.730785646,-1,2,1,0,-1,2134,-8692,13,32,0.716464692,-1,3,0,0,1,834,-7693,13,33,0.827936096,-1,2,1,1,1,1734,-6694,13,34,0.830262051,1,3,0,0,1,1703,-5695,13,35,0.865052926,1,1,1,1,1,1602,-4696,13,36,0.715641994,1,3,0,0,1,1639,-3697,13,37,0.593985036,-1,2,0,0,1,1015,-2698,13,38,0.4149251,1,1,1,1,1,1520,-1699,13,39,0.383137452,-1,2,0,1,-1,1025,-2700,13,40,0.292723215,-1,1,1,1,1,829,-1701,13,41,0.272711311,-1,3,0,0,1,1881,0702,13,42,0.248321206,-1,1,1,1,1,1462,1703,13,43,0.231965664,-1,2,0,1,-1,793,0704,13,44,0.279908498,-1,1,1,1,1,943,1705,13,45,0.261639099,1,3,0,1,-1,1399,0706,13,46,0.142923029,-1,2,0,1,-1,912,-1707,13,47,0.112263537,-1,3,0,0,1,1519,0708,13,48,0.127778265,-1,2,1,0,-1,655,-1709,13,49,0.166416527,-1,1,1,0,-1,1015,-2710,13,50,0.253182999,1,2,1,0,-1,713,-3711,13,51,0.299681989,-1,3,0,0,1,766,-2712,13,52,0.266048709,1,1,1,1,1,1417,-1713,13,53,0.407998728,-1,3,1,1,1,928,0714,13,54,0.415214593,-1,1,1,1,1,679,1715,13,55,0.404045019,1,2,0,1,-1,1080,0716,13,56,0.46671579,-1,1,0,1,-1,751,-1717,13,57,0.440236298,-1,3,0,1,-1,655,-2718,13,58,0.558821694,-1,2,1,1,1,831,-1719,13,59,0.684927566,1,3,0,1,-1,601,-2720,13,60,0.792844385,-1,2,0,1,-1,720,-3721,14,1,0.522041334,1,2,1,0,-1,2023,-5722,14,2,0.616337716,-1,3,1,0,-1,1086,-6723,14,3,0.559394554,-1,1,1,1,1,943,-5724,14,4,0.422750354,-1,3,1,0,-1,969,-6725,14,5,0.529590887,1,2,0,1,-1,2188,-7726,14,6,0.592745819,1,1,1,1,1,786,-6727,14,7,0.611877628,1,2,0,1,-1,1580,-7728,14,8,0.67338688,-1,1,0,1,-1,921,-8729,14,9,0.687837287,-1,3,0,0,1,822,-7730,14,10,0.568610389,1,1,1,1,1,1047,-6731,14,11,0.63947732,1,2,0,0,1,1305,-5732,14,12,0.585295313,1,3,0,0,1,797,-4733,14,13,0.452543806,1,2,0,0,1,2363,-3734,14,14,0.438280256,-1,3,0,0,1,1249,-2735,14,15,0.432017132,-1,1,1,1,1,918,-1736,14,16,0.30860025,-1,3,0,0,1,836,0737,14,17,0.301074632,-1,2,1,0,-1,1169,-1738,14,18,0.38731897,-1,1,0,1,-1,802,-2739,14,19,0.239942046,-1,2,0,0,1,1444,-1740,14,20,0.205761284,-1,1,1,1,1,1018,0741,14,21,0.187980731,1,3,0,0,1,781,1742,14,22,0.207613115,-1,1,0,1,-1,853,0743,14,23,0.263686085,-1,2,1,0,-1,1321,-1744,14,24,0.290044339,-1,1,1,1,1,724,0745,14,25,0.262839467,-1,3,0,0,1,850,1746,14,26,0.310304706,1,2,1,0,-1,1428,0747,14,27,0.2763063,-1,3,0,0,1,942,1748,14,28,0.404361884,-1,2,0,1,-1,896,0749,14,29,0.468222881,-1,1,0,1,-1,1025,-1750,14,30,0.536491944,1,2,1,1,1,974,0751,14,31,0.479173363,1,3,0,0,1,812,1752,14,32,0.579161573,1,1,1,1,1,1031,2753,14,33,0.623050431,1,3,0,0,1,843,3754,14,34,0.693223107,1,1,1,1,1,794,4755,14,35,0.801560121,1,2,0,1,-1,2529,3756,14,36,0.689269977,1,1,1,1,1,713,4757,14,37,0.771618508,1,3,0,0,1,741,5758,14,38,0.766636196,1,2,1,1,1,987,6759,14,39,0.780824931,-1,3,1,0,-1,845,5760,14,40,0.718423872,1,2,0,1,-1,1173,4761,14,41,0.685810818,-1,1,1,1,1,582,5762,14,42,0.603069903,-1,2,1,1,1,1169,6763,14,43,0.650027893,1,3,0,0,1,708,7764,14,44,0.510845094,1,2,0,1,-1,895,6765,14,45,0.56655607,1,1,0,1,-1,691,5766,14,46,0.507875939,1,3,1,0,-1,963,4767,14,47,0.428528195,-1,1,1,1,1,1088,5768,14,48,0.448438245,1,3,0,0,1,745,6769,14,49,0.31497708,-1,2,1,1,1,744,7770,14,50,0.40119012,-1,3,0,0,1,666,8771,14,51,0.364731603,1,1,1,1,1,573,9772,14,52,0.264567859,1,2,1,1,1,496,10773,14,53,0.340887359,-1,1,1,1,1,739,11774,14,54,0.421063786,-1,2,1,1,1,829,12775,14,55,0.493514523,-1,3,0,0,1,566,13776,14,56,0.485459921,-1,2,0,1,-1,919,12777,14,57,0.476682192,-1,1,1,1,1,728,13778,14,58,0.480941798,-1,3,1,0,-1,887,12779,14,59,0.465892797,-1,1,1,1,1,821,13780,14,60,0.535200633,1,3,0,0,1,729,14781,15,1,0.588936643,-1,1,1,1,1,1237,7782,15,2,0.639285788,-1,2,1,1,1,1045,8783,15,3,0.536533688,-1,3,0,0,1,617,9784,15,4,0.452691904,-1,2,1,1,1,1949,10785,15,5,0.411490571,-1,1,1,1,1,661,11786,15,6,0.297242433,-1,3,0,0,1,752,12787,15,7,0.326288353,-1,1,1,1,1,680,13788,15,8,0.423438662,-1,3,0,0,1,1028,14789,15,9,0.357719112,-1,2,0,1,-1,797,13790,15,10,0.374771052,1,3,0,0,1,902,14791,15,11,0.441053419,-1,1,1,1,1,654,15792,15,12,0.457857334,-1,2,0,0,1,1221,16793,15,13,0.345744082,1,1,0,1,-1,900,15794,15,14,0.342623723,1,2,1,0,-1,790,14795,15,15,0.295358354,-1,3,0,0,1,813,15796,15,16,0.253682036,1,2,0,1,-1,1067,14797,15,17,0.280585909,-1,1,0,1,-1,551,13798,15,18,0.15074585,-1,3,1,0,-1,749,12799,15,19,0.182129872,-1,1,1,1,1,788,13800,15,20,0.137027821,-1,3,1,0,-1,713,12801,15,21,0.121258564,-1,2,1,1,1,759,13802,15,22,0.17551957,-1,3,0,0,1,785,14803,15,23,0.158284308,-1,1,1,1,1,688,15804,15,24,0.237281126,-1,3,0,0,1,601,16805,15,25,0.114149843,-1,2,1,1,1,731,17806,15,26,0.112365341,1,1,1,1,1,640,18807,15,27,0.149935053,-1,2,0,0,1,1274,19808,15,28,0.144712695,-1,1,0,0,1,587,20809,15,29,0.163064313,-1,3,0,0,1,974,21810,15,30,0.144696318,-1,1,0,1,-1,925,20811,15,31,0.280516336,-1,2,0,1,-1,915,19812,15,32,0.277704892,1,3,0,0,1,666,20813,15,33,0.405290401,1,2,1,1,1,926,21814,15,34,0.55308629,-1,3,0,0,1,782,22815,15,35,0.612831918,1,1,1,1,1,483,23816,15,36,0.519937301,1,3,1,1,1,582,24817,15,37,0.551278802,1,2,0,1,-1,848,23818,15,38,0.606121653,1,1,1,1,1,778,24819,15,39,0.655317545,-1,2,1,1,1,682,25820,15,40,0.631503222,1,1,1,1,1,787,26821,15,41,0.649497183,1,3,0,0,1,739,27822,15,42,0.605975204,1,1,1,1,1,670,28823,15,43,0.63590453,-1,2,1,1,1,1797,29824,15,44,0.622796261,1,1,1,1,1,753,30825,15,45,0.549938575,1,3,0,0,1,773,31826,15,46,0.607083544,-1,2,0,0,1,675,32827,15,47,0.555895809,1,3,0,0,1,811,33828,15,48,0.631663303,1,2,1,1,1,1018,34829,15,49,0.60141705,1,1,1,1,1,792,35830,15,50,0.656027798,1,2,0,0,1,1352,36831,15,51,0.663414658,1,3,1,0,-1,1377,35832,15,52,0.592795649,1,1,1,1,1,695,36833,15,53,0.707552246,1,3,0,0,1,724,37834,15,54,0.81046698,1,1,0,1,-1,672,36835,15,55,0.834205482,-1,2,1,1,1,698,37836,15,56,0.683735564,1,1,1,1,1,825,38837,15,57,0.64125405,-1,3,0,0,1,680,39838,15,58,0.759873993,1,2,0,1,-1,1097,38839,15,59,0.714582153,1,3,1,0,-1,890,37840,15,60,0.708620341,1,2,0,1,-1,1431,36841,16,1,0.43103813,-1,3,0,0,1,2439,5842,16,2,0.359162344,1,1,1,1,1,890,6843,16,3,0.494784838,1,2,0,1,-1,700,5844,16,4,0.521064459,-1,1,1,1,1,585,6845,16,5,0.397942284,-1,3,0,0,1,837,7846,16,6,0.359239982,-1,2,0,0,1,886,8847,16,7,0.293506144,-1,3,0,0,1,605,9848,16,8,0.342096121,1,2,1,0,-1,173,8849,16,9,0.30717727,-1,1,0,1,-1,589,7850,16,10,0.44709847,-1,2,1,1,1,758,8851,16,11,0.413020212,-1,3,1,0,-1,588,7852,16,12,0.281565576,-1,1,1,1,1,584,8853,16,13,0.27210646,-1,3,0,1,-1,343,7854,16,14,0.290121021,1,1,1,1,1,465,8855,16,15,0.292614586,-1,2,1,1,1,1415,9856,16,16,0.371676846,1,1,0,1,-1,716,8857,16,17,0.338053101,1,3,0,0,1,665,9858,16,18,0.395173634,1,2,0,1,-1,1255,8859,16,19,0.399998154,1,3,0,0,1,3395,9860,16,20,0.266688333,1,2,0,1,-1,1124,8861,16,21,0.315810273,-1,2,1,1,1,1044,9862,16,22,0.347672583,-1,3,0,1,-1,482,8863,16,23,0.411064974,1,1,1,1,1,663,9864,16,24,0.401560728,1,3,0,1,-1,694,8865,16,25,0.433873289,-1,2,1,1,1,480,9866,16,26,0.535128651,-1,1,1,1,1,1732,10867,16,27,0.417829215,-1,2,0,1,-1,1015,9868,16,28,0.361594298,1,1,1,1,1,676,10869,16,29,0.404261615,1,3,1,0,-1,742,9870,16,30,0.563610272,-1,1,0,1,-1,570,8871,16,31,0.542811996,-1,2,0,0,1,472,9872,16,32,0.5629797,-1,3,0,0,1,665,10873,16,33,0.455671204,-1,2,0,0,1,752,11874,16,34,0.483992359,-1,3,1,0,-1,936,10875,16,35,0.477551978,-1,1,1,1,1,694,11876,16,36,0.44130044,-1,3,0,0,1,1132,12877,16,37,0.362656579,1,2,1,0,-1,4388,11878,16,38,0.410446141,1,1,1,1,1,503,12879,16,39,0.441864199,-1,2,0,0,1,1149,13880,16,40,0.454056118,-1,1,1,1,1,2036,14881,16,41,0.590119554,1,1,0,1,-1,653,13882,16,42,0.578590866,1,2,1,1,1,612,14883,16,43,0.730730961,1,3,0,0,1,2588,15884,16,44,0.531970721,-1,2,1,1,1,514,16885,16,45,0.597934623,1,1,1,1,1,530,17886,16,46,0.628893952,1,3,0,1,-1,552,16887,16,47,0.646494755,1,1,1,1,1,711,17888,16,48,0.692762099,-1,3,1,0,-1,635,16889,16,49,0.734406556,-1,2,0,1,-1,997,15890,16,50,0.825069375,1,3,0,0,1,764,16891,16,51,0.849086581,1,1,1,1,1,474,17892,16,52,0.874422964,1,2,1,0,-1,818,16893,16,53,0.805968815,1,1,1,1,1,601,17894,16,54,0.833555173,1,2,0,0,1,671,18895,16,55,0.894883054,1,3,0,0,1,720,19896,16,56,0.88839831,1,2,1,0,-1,292,18897,16,57,0.88333838,1,1,1,1,1,576,19898,16,58,0.885176329,1,3,0,0,1,699,20899,16,59,0.892278271,1,1,0,1,-1,708,19900,16,60,0.884425754,1,3,1,0,-1,1498,18901,17,1,0.47307154,1,1,1,1,1,965,-1902,17,2,0.560039713,1,2,1,1,1,1322,0903,17,3,0.458400634,-1,3,0,0,1,802,1904,17,4,0.602079463,1,2,0,1,-1,1428,0905,17,5,0.584502079,1,1,1,1,1,1145,1906,17,6,0.604230269,-1,3,0,0,1,918,2907,17,7,0.640525038,1,1,1,1,1,1077,3908,17,8,0.634226593,-1,3,0,0,1,992,4909,17,9,0.704397202,1,2,0,0,1,1176,5910,17,10,0.811561478,1,3,1,0,-1,1021,4911,17,11,0.894001154,1,1,1,1,1,888,5912,17,12,0.876955634,1,2,0,1,-1,806,4913,17,13,0.89285531,1,1,1,1,1,992,5914,17,14,0.884138708,1,2,0,0,1,1549,6915,17,15,0.85641175,1,3,0,0,1,1021,7916,17,16,0.769788878,-1,2,1,0,-1,1196,6917,17,17,0.600025603,-1,1,1,1,1,810,7918,17,18,0.594224581,-1,3,0,0,1,888,8919,17,19,0.597506102,1,1,1,1,1,1075,9920,17,20,0.569360677,1,3,1,0,-1,1271,8921,17,21,0.590886936,1,3,0,0,1,965,9922,17,22,0.490165562,1,1,0,1,-1,865,8923,17,23,0.490241991,1,2,1,0,-1,1486,7924,17,24,0.548762381,1,1,1,1,1,674,8925,17,25,0.623811627,1,3,0,0,1,998,9926,17,26,0.526875297,1,2,0,0,1,1165,10927,17,27,0.680695586,1,3,0,0,1,948,11928,17,28,0.57865041,1,2,1,1,1,1292,12929,17,29,0.588595066,-1,1,1,1,1,747,13930,17,30,0.643332872,-1,2,1,0,-1,749,12931,17,31,0.600427558,1,3,1,0,-1,803,11932,17,32,0.44746579,1,1,0,1,-1,620,10933,17,33,0.529550477,1,3,0,0,1,990,11934,17,34,0.469982781,1,1,1,1,1,684,12935,17,35,0.477575171,1,2,0,1,-1,712,11936,17,36,0.408436125,-1,1,0,1,-1,924,10937,17,37,0.436183722,-1,3,0,0,1,1016,11938,17,38,0.413720033,-1,2,0,0,1,1191,12939,17,39,0.474249787,-1,3,1,0,-1,974,11940,17,40,0.379945484,1,2,0,0,1,1331,12941,17,41,0.324966651,-1,2,0,1,-1,1314,11942,17,42,0.326601948,-1,3,0,0,1,867,12943,17,43,0.307622999,-1,1,1,1,1,650,13944,17,44,0.149152582,-1,3,0,0,1,853,14945,17,45,0.1237976,-1,2,1,1,1,851,15946,17,46,0.236469822,-1,1,1,1,1,670,16947,17,47,0.361937292,1,2,1,0,-1,1057,15948,17,48,0.469044931,1,1,0,1,-1,921,14949,17,49,0.43875466,-1,3,0,0,1,896,15950,17,50,0.465796324,-1,1,1,1,1,847,16951,17,51,0.622892935,-1,2,1,1,1,652,17952,17,52,0.464890939,-1,3,0,0,1,619,18953,17,53,0.336056153,-1,2,1,1,1,1000,19954,17,54,0.280725092,-1,3,0,0,1,882,20955,17,55,0.210686592,-1,1,1,1,1,556,21956,17,56,0.233012581,-1,3,1,0,-1,847,20957,17,57,0.152854833,-1,2,1,1,1,998,21958,17,58,0.200030145,-1,1,1,1,1,499,22959,17,59,0.211980041,-1,2,0,0,1,1195,23960,17,60,0.163877939,-1,1,0,1,-1,634,22961,18,1,0.531699281,NaN,1,NaN,NaN,NaN,NaN,-6962,18,2,0.567947276,NaN,2,NaN,NaN,NaN,NaN,-6963,18,3,0.494797534,-1,3,0,0,1,1122,-5964,18,4,0.411367941,1,2,1,0,-1,1544,-6965,18,5,0.351726856,1,1,0,0,1,1600,-5966,18,6,0.309228592,-1,3,0,0,1,1017,-4967,18,7,0.240552147,-1,1,1,0,-1,723,-5968,18,8,0.312494164,1,3,0,0,1,1336,-4969,18,9,0.319735551,1,2,0,1,-1,800,-5970,18,10,0.317959159,1,3,0,1,-1,1271,-6971,18,11,0.302900502,-1,1,1,1,1,1304,-5972,18,12,0.308161425,-1,2,1,0,-1,1407,-6973,18,13,0.290108014,-1,1,1,1,1,864,-5974,18,14,0.308566638,-1,2,0,1,-1,1193,-6975,18,15,0.383998418,1,3,0,0,1,759,-5976,18,16,0.417900005,1,2,0,0,1,1439,-4977,18,17,0.472719612,1,1,1,1,1,785,-3978,18,18,0.391776657,1,3,0,0,1,735,-2979,18,19,0.432265833,-1,1,1,0,-1,432,-3980,18,20,0.407656228,1,3,1,0,-1,704,-4981,18,21,0.484248401,-1,2,1,0,-1,672,-5982,18,22,0.537477926,-1,3,0,1,-1,551,-6983,18,23,0.520134363,-1,1,1,1,1,624,-5984,18,24,0.595948258,1,3,1,0,-1,615,-6985,18,25,0.638400866,1,2,0,0,1,1072,-5986,18,26,0.672631159,-1,1,1,1,1,1436,-4987,18,27,0.607148162,-1,2,0,0,1,1387,-3988,18,28,0.606309155,-1,1,0,1,-1,1048,-4989,18,29,0.573123439,-1,3,1,0,-1,824,-5990,18,30,0.608725319,1,1,1,1,1,800,-4991,18,31,0.601192284,-1,2,1,1,1,783,-3992,18,32,0.660944097,1,3,0,0,1,1344,-2993,18,33,0.742713276,1,2,0,0,1,448,-1994,18,34,0.807888067,-1,3,0,0,1,608,0995,18,35,0.789297367,1,1,0,0,1,984,1996,18,36,0.834270663,-1,3,0,0,1,584,2997,18,37,0.893059052,-1,2,1,0,-1,775,1998,18,38,0.850597219,1,1,1,1,1,1753,2999,18,39,0.813886565,1,2,0,0,1,767,31000,18,40,0.857489342,1,1,1,0,-1,1223,21001,18,41,0.847669619,-1,3,0,0,1,600,31002,18,42,0.691011282,-1,1,1,1,1,878,41003,18,43,0.593899376,-1,2,0,0,1,936,51004,18,44,0.582109002,1,1,0,1,-1,644,41005,18,45,0.600402709,-1,3,1,0,-1,769,31006,18,46,0.491880666,1,2,0,0,1,703,41007,18,47,0.497325446,-1,3,0,0,1,680,51008,18,48,0.460607721,1,2,1,0,-1,1080,41009,18,49,0.404490343,-1,1,1,1,1,1328,51010,18,50,0.492137302,-1,2,0,0,1,759,61011,18,51,0.468403106,1,3,0,0,1,649,71012,18,52,0.520627854,-1,1,1,1,1,1317,81013,18,53,0.495383665,1,3,0,0,1,761,91014,18,54,0.479745586,1,1,1,1,1,589,101015,18,55,0.498290257,1,2,1,0,-1,560,91016,18,56,0.501632728,-1,1,0,1,-1,767,81017,18,57,0.521915064,-1,3,0,0,1,921,91018,18,58,0.538967291,-1,2,1,0,-1,791,81019,18,59,0.446399482,1,3,1,0,-1,764,71020,18,60,0.432786288,-1,2,1,0,-1,704,61021,19,1,0.564100206,-1,1,1,1,1,2236,91022,19,2,0.666908811,1,2,0,1,-1,1236,81023,19,3,0.597322082,1,3,0,0,1,1036,91024,19,4,0.567320577,1,2,0,1,-1,1234,81025,19,5,0.558125116,-1,1,1,1,1,624,91026,19,6,0.50815619,1,3,0,0,1,873,101027,19,7,0.564771918,1,1,1,1,1,705,111028,19,8,0.71074009,1,3,0,0,1,3401,121029,19,9,0.739179504,1,2,0,0,1,3618,131030,19,10,0.779240976,-1,3,1,0,-1,3392,121031,19,11,0.833179529,NaN,1,NaN,NaN,NaN,NaN,121032,19,12,0.789183089,1,2,0,1,-1,1814,111033,19,13,0.804368817,1,1,1,1,1,729,121034,19,14,0.714951131,1,2,0,0,1,1093,131035,19,15,0.677771522,-1,3,0,0,1,548,141036,19,16,0.725845215,1,2,0,0,1,1265,151037,19,17,0.773746091,-1,1,1,1,1,631,161038,19,18,0.676924916,-1,3,1,0,-1,609,151039,19,19,0.66354415,-1,1,0,1,-1,839,141040,19,20,0.658743629,1,3,1,0,-1,673,131041,19,21,0.615760954,1,3,0,1,-1,814,121042,19,22,0.499055782,1,1,1,1,1,843,131043,19,23,0.488291549,1,2,1,1,1,762,141044,19,24,0.464970046,-1,1,1,1,1,608,151045,19,25,0.510235339,-1,3,0,0,1,720,161046,19,26,0.611002039,-1,2,0,0,1,1079,171047,19,27,0.484153112,1,3,0,0,1,658,181048,19,28,0.510890394,1,2,1,0,-1,527,171049,19,29,0.547850282,-1,1,1,1,1,583,181050,19,30,0.512419297,1,2,1,1,1,1128,191051,19,31,0.51315336,1,3,1,0,-1,815,181052,19,32,0.545516501,1,1,1,1,1,610,191053,19,33,0.571044227,-1,3,0,0,1,830,201054,19,34,0.547962881,-1,1,1,1,1,689,211055,19,35,0.594074768,-1,2,1,0,-1,829,201056,19,36,0.546950902,-1,1,0,1,-1,659,191057,19,37,0.560924103,-1,3,0,0,1,756,201058,19,38,0.571597832,1,2,0,0,1,655,211059,19,39,0.563371582,1,3,0,0,1,578,221060,19,40,0.455987512,-1,2,1,0,-1,503,211061,19,41,0.428028851,-1,2,1,0,-1,955,201062,19,42,0.323712965,-1,3,0,0,1,718,211063,19,43,0.184511001,1,1,0,1,-1,622,201064,19,44,0.164032168,-1,3,0,0,1,627,211065,19,45,0.134229223,-1,2,0,0,1,822,221066,19,46,0.195237388,-1,1,1,1,1,782,231067,19,47,0.251363612,1,2,1,0,-1,661,221068,19,48,0.215054851,-1,1,1,1,1,655,231069,19,49,0.195626311,-1,3,1,0,-1,735,221070,19,50,0.247261198,1,1,0,1,-1,549,211071,19,51,0.203824877,1,2,1,1,1,860,221072,19,52,0.182677007,-1,3,0,0,1,641,231073,19,53,0.163689813,-1,2,1,0,-1,1235,221074,19,54,0.106789949,-1,3,0,0,1,706,231075,19,55,0.128093414,-1,1,1,1,1,460,241076,19,56,0.248329968,1,3,0,0,1,733,251077,19,57,0.217623284,-1,2,0,1,-1,1014,241078,19,58,0.17418158,-1,1,0,1,-1,517,231079,19,59,0.187276068,-1,2,1,1,1,768,241080,19,60,0.162396276,-1,1,1,1,1,585,251081,20,1,0.548887663,1,2,0,1,-1,1743,-41082,20,2,0.607886682,-1,3,0,1,-1,2837,-51083,20,3,0.657116583,1,1,1,1,1,920,-41084,20,4,0.761818119,1,3,0,0,1,1014,-31085,20,5,0.792399626,1,2,0,0,1,811,-21086,20,6,0.836834533,1,1,0,1,-1,588,-31087,20,7,0.718872437,1,2,0,1,-1,794,-41088,20,8,0.723448945,1,1,1,1,1,968,-31089,20,9,0.729538233,-1,3,0,0,1,879,-21090,20,10,0.716809131,-1,1,1,1,1,805,-11091,20,11,0.757187134,1,2,1,0,-1,1076,-21092,20,12,0.788201134,1,3,0,0,1,1163,-11093,20,13,0.683843697,1,2,1,1,1,1566,01094,20,14,0.695657235,1,3,0,0,1,1338,11095,20,15,0.684779907,1,1,1,1,1,728,21096,20,16,0.686121829,1,3,0,0,1,939,31097,20,17,0.598570408,1,2,1,0,-1,1056,21098,20,18,0.642134583,1,1,1,1,1,1023,31099,20,19,0.619499626,1,2,1,1,1,1723,41100,20,20,0.610358472,1,1,1,1,1,1113,51101,20,21,0.636655396,-1,1,1,1,1,857,61102,20,22,0.684821187,1,2,1,1,1,1334,71103,20,23,0.55646562,-1,3,1,0,-1,1074,61104,20,24,0.504980052,-1,2,0,1,-1,1302,51105,20,25,0.512779936,1,1,1,1,1,1111,61106,20,26,0.638099939,1,3,1,0,-1,1361,51107,20,27,0.541528604,-1,1,0,1,-1,1491,41108,20,28,0.437691872,-1,3,0,0,1,1004,51109,20,29,0.326416229,-1,2,1,0,-1,1395,41110,20,30,0.381507735,-1,3,1,0,-1,1177,31111,20,31,0.419562339,-1,1,1,1,1,974,41112,20,32,0.372806445,1,2,0,1,-1,1202,31113,20,33,0.297216949,-1,1,0,1,-1,1000,21114,20,34,0.360924244,1,2,0,1,-1,1255,11115,20,35,0.317646683,1,3,0,0,1,1311,21116,20,36,0.334535886,-1,2,1,1,1,1193,31117,20,37,0.241616883,-1,1,1,1,1,1038,41118,20,38,0.317114892,1,3,0,0,1,1194,51119,20,39,0.447851581,-1,1,1,1,1,856,61120,20,40,0.535806525,1,3,0,0,1,1055,71121,20,41,0.459188497,-1,3,0,0,1,1050,81122,20,42,0.430997281,1,1,0,1,-1,892,71123,20,43,0.452869829,1,2,0,0,1,1683,81124,20,44,0.547401405,-1,1,1,1,1,1077,91125,20,45,0.493551891,1,3,1,0,-1,1137,81126,20,46,0.451400672,1,2,1,1,1,1223,91127,20,47,0.364213322,-1,3,0,0,1,1429,101128,20,48,0.331964071,-1,2,0,1,-1,1329,91129,20,49,0.26568741,-1,1,1,1,1,992,101130,20,50,0.316076936,1,2,1,1,1,1456,111131,20,51,0.206415872,-1,3,1,0,-1,1225,101132,20,52,0.142167828,-1,1,1,1,1,1054,111133,20,53,0.122132496,-1,3,0,0,1,1422,121134,20,54,0.134176228,-1,1,1,1,1,1100,131135,20,55,0.128758106,1,2,0,1,-1,1597,121136,20,56,0.122395935,-1,1,0,1,-1,1420,111137,20,57,0.10717343,-1,3,0,0,1,1334,121138,20,58,0.157708023,-1,2,1,1,1,1063,131139,20,59,0.15443311,-1,3,0,0,1,1432,141140,20,60,0.155953556,-1,2,0,1,-1,1138,131141,21,1,0.575496091,1,1,1,1,1,2161,-11142,21,2,0.621898898,1,2,0,1,-1,2419,-21143,21,3,0.616070688,-1,3,0,0,1,972,-11144,21,4,0.640690933,1,2,1,0,-1,1801,-21145,21,5,0.610906146,1,1,1,1,1,883,-11146,21,6,0.783069439,1,3,0,0,1,866,01147,21,7,0.761580587,1,1,0,1,-1,915,-11148,21,8,0.842525196,1,3,1,0,-1,682,-21149,21,9,0.716491877,-1,2,1,1,1,1041,-11150,21,10,0.747944398,1,3,0,0,1,830,01151,21,11,0.714091308,-1,1,1,1,1,670,11152,21,12,0.689677548,1,2,1,1,1,1177,21153,21,13,0.801060479,1,1,1,1,1,1579,31154,21,14,0.89453364,1,2,0,1,-1,973,21155,21,15,0.873512963,1,3,0,0,1,995,31156,21,16,0.830108056,1,2,0,1,-1,965,21157,21,17,0.790912228,1,1,1,1,1,602,31158,21,18,0.76980239,-1,3,0,0,1,907,41159,21,19,0.813530698,1,1,1,1,1,569,51160,21,20,0.784339693,-1,3,1,0,-1,844,41161,21,21,0.790578918,1,3,1,0,-1,1168,31162,21,22,0.707719146,1,1,1,1,1,752,41163,21,23,0.656895651,1,2,1,1,1,979,51164,21,24,0.579159089,1,1,1,1,1,783,61165,21,25,0.521741702,1,3,0,0,1,657,71166,21,26,0.560856849,-1,2,0,1,-1,1430,61167,21,27,0.525363357,1,3,0,0,1,838,71168,21,28,0.546197929,-1,2,1,1,1,880,81169,21,29,0.509549073,1,1,1,1,1,703,91170,21,30,0.495813181,1,2,0,0,1,922,101171,21,31,0.45123705,-1,3,0,0,1,820,111172,21,32,0.212507244,-1,1,0,1,-1,558,101173,21,33,0.157623637,-1,3,0,0,1,972,111174,21,34,0.150858658,-1,1,0,1,-1,697,101175,21,35,0.216344728,-1,2,1,1,1,779,111176,21,36,0.277673049,-1,1,1,1,1,844,121177,21,37,0.237117649,-1,3,0,1,-1,975,111178,21,38,0.175349158,-1,2,0,1,-1,1027,101179,21,39,0.126473659,-1,3,1,0,-1,1054,91180,21,40,0.162819782,-1,2,1,1,1,748,101181,21,41,0.128965088,-1,2,0,1,-1,945,91182,21,42,0.111916012,-1,3,0,0,1,759,101183,21,43,0.162841195,1,1,1,1,1,688,111184,21,44,0.230813878,1,3,0,0,1,834,121185,21,45,0.382490004,1,2,1,1,1,992,131186,21,46,0.333406099,-1,1,1,1,1,771,141187,21,47,0.254250484,-1,2,0,1,-1,1259,131188,21,48,0.267624081,-1,1,1,1,1,745,141189,21,49,0.303778397,-1,3,0,0,1,799,151190,21,50,0.369444489,1,1,0,1,-1,801,141191,21,51,0.378107639,-1,2,1,1,1,936,151192,21,52,0.390603025,1,3,1,0,-1,626,141193,21,53,0.384959383,-1,2,0,1,-1,736,131194,21,54,0.480694704,-1,3,0,1,-1,936,121195,21,55,0.472476216,-1,1,1,1,1,699,131196,21,56,0.545331141,1,3,0,0,1,1156,141197,21,57,0.568896081,-1,2,1,1,1,523,151198,21,58,0.571683523,-1,1,1,1,1,681,161199,21,59,0.638555233,-1,2,0,1,-1,633,151200,21,60,0.598352507,1,1,0,1,-1,777,141201,22,1,0.577093909,-1,1,1,1,1,1423,11202,22,2,0.533055005,1,2,0,1,-1,1049,01203,22,3,0.451782906,-1,3,1,0,-1,1185,-11204,22,4,0.453460159,-1,2,1,1,1,929,01205,22,5,0.440377447,-1,1,0,1,-1,706,-11206,22,6,0.446814359,-1,3,0,1,-1,1000,-21207,22,7,0.3658923,-1,1,1,1,1,1179,-11208,22,8,0.441439443,-1,3,0,0,1,1187,01209,22,9,0.519567796,1,2,1,1,1,1302,11210,22,10,0.458138227,-1,3,0,0,1,986,21211,22,11,0.523033635,1,1,1,0,-1,1867,11212,22,12,0.573532225,1,2,1,1,1,838,21213,22,13,0.723376756,1,1,1,1,1,892,31214,22,14,0.601792274,-1,2,1,1,1,774,41215,22,15,0.551936906,1,3,0,1,-1,899,31216,22,16,0.572200992,-1,2,0,1,-1,960,21217,22,17,0.638973544,-1,1,1,1,1,609,31218,22,18,0.502388695,-1,3,0,0,1,1622,41219,22,19,0.5300186,1,1,1,1,1,774,51220,22,20,0.459654296,-1,3,1,0,-1,1190,41221,22,21,0.382007959,-1,2,1,1,1,679,51222,22,22,0.324089796,-1,3,1,1,1,2325,61223,22,23,0.249708527,-1,1,1,1,1,703,71224,22,24,0.128536324,-1,3,0,1,-1,966,61225,22,25,0.177308467,-1,2,0,1,-1,824,51226,22,26,0.301578534,-1,1,1,1,1,922,61227,22,27,0.236937468,-1,2,1,1,1,770,71228,22,28,0.305033184,1,1,1,1,1,554,81229,22,29,0.275749214,-1,3,1,0,-1,1270,71230,22,30,0.303464016,1,1,0,1,-1,690,61231,22,31,0.325829564,-1,2,1,1,1,901,71232,22,32,0.351026177,-1,3,0,0,1,1397,81233,22,33,0.265451595,-1,2,0,1,-1,628,71234,22,34,0.234392662,-1,3,0,1,-1,419,61235,22,35,0.32700811,1,1,1,1,1,687,71236,22,36,0.34450891,1,3,0,0,1,888,81237,22,37,0.289981045,-1,2,0,1,-1,767,71238,22,38,0.300976705,-1,1,1,1,1,711,81239,22,39,0.405338381,-1,2,0,1,-1,640,71240,22,40,0.480037575,-1,1,0,1,-1,904,61241,22,41,0.49325573,-1,3,0,0,1,1102,71242,22,42,0.522073511,-1,1,1,0,-1,851,61243,22,43,0.55156346,-1,2,0,1,-1,698,51244,22,44,0.463202452,1,1,1,1,1,647,61245,22,45,0.436161417,1,3,0,0,1,848,71246,22,46,0.535546786,1,2,1,0,-1,941,61247,22,47,0.413523371,-1,3,1,1,1,612,71248,22,48,0.388432757,1,2,1,1,1,991,81249,22,49,0.390969015,-1,1,0,1,-1,585,71250,22,50,0.453011668,-1,2,1,0,-1,1177,61251,22,51,0.439941999,-1,3,0,0,1,1108,71252,22,52,0.509314888,-1,1,1,1,1,1793,81253,22,53,0.564236451,-1,3,0,0,1,1154,91254,22,54,0.515884138,1,1,1,1,1,634,101255,22,55,0.600355733,1,2,0,1,-1,1252,91256,22,56,0.759842162,1,1,0,1,-1,685,81257,22,57,0.823812402,1,3,0,0,1,794,91258,22,58,0.881015055,1,2,0,1,-1,848,81259,22,59,0.818738736,1,3,0,1,-1,615,71260,22,60,0.842392588,-1,2,0,1,-1,916,61261,23,1,0.466445758,1,3,1,0,-1,2553,71262,23,2,0.514898062,1,1,1,1,1,1724,81263,23,3,0.523657053,1,2,0,1,-1,3444,71264,23,4,0.694878072,1,1,1,1,1,1100,81265,23,5,0.760434647,1,3,0,0,1,1375,91266,23,6,0.735214574,-1,2,0,1,-1,3743,81267,23,7,0.760353604,1,3,0,0,1,1125,91268,23,8,0.779949028,1,2,1,0,-1,1252,81269,23,9,0.735136825,1,1,0,1,-1,1102,71270,23,10,0.804510517,1,2,1,1,1,1334,81271,23,11,0.750843865,1,3,0,1,-1,724,71272,23,12,0.811441924,1,1,1,1,1,1056,81273,23,13,0.807312944,1,3,0,0,1,1859,91274,23,14,0.846970559,1,1,0,1,-1,1365,81275,23,15,0.846499429,1,2,0,0,1,1328,91276,23,16,0.848630055,1,1,0,0,1,1180,101277,23,17,0.875844416,1,3,0,1,-1,1100,91278,23,18,0.864260477,1,2,1,0,-1,590,81279,23,19,0.75252204,-1,3,1,1,1,1522,91280,23,20,0.709602848,-1,2,0,1,-1,1343,81281,23,21,0.671863666,1,2,1,1,1,381,91282,23,22,0.671836983,1,3,0,0,1,1263,101283,23,23,0.68748867,1,1,0,0,1,852,111284,23,24,0.62319605,1,3,0,1,-1,1115,101285,23,25,0.505643123,-1,2,1,0,-1,695,91286,23,26,0.50586705,-1,1,1,0,-1,619,81287,23,27,0.658014724,-1,2,0,1,-1,587,71288,23,28,0.623385726,1,1,1,0,-1,619,61289,23,29,0.583775659,1,3,0,0,1,1226,71290,23,30,0.563368177,-1,1,1,1,1,903,81291,23,31,0.437569122,1,2,0,0,1,811,91292,23,32,0.455616539,1,3,0,0,1,724,101293,23,33,0.42468533,-1,2,1,0,-1,1054,91294,23,34,0.488618722,-1,3,1,0,-1,843,81295,23,35,0.438114816,1,1,1,1,1,306,91296,23,36,0.388275182,1,3,1,0,-1,1519,81297,23,37,0.432916287,-1,2,0,1,-1,573,71298,23,38,0.488352316,1,1,1,0,-1,418,61299,23,39,0.381595357,-1,2,1,0,-1,394,51300,23,40,0.353360863,-1,1,0,0,1,323,61301,23,41,0.306427853,-1,1,1,1,1,525,71302,23,42,0.37082543,1,2,0,1,-1,1584,61303,23,43,0.403920954,-1,3,0,0,1,720,71304,23,44,0.468478782,1,2,0,0,1,1260,81305,23,45,0.53015972,-1,1,1,1,1,648,91306,23,46,0.588350851,1,3,0,0,1,10,101307,23,47,0.551556771,1,1,1,1,1,475,111308,23,48,0.590030709,-1,3,0,0,1,524,121309,23,49,0.561815023,1,2,1,0,-1,1225,111310,23,50,0.50716088,-1,3,0,0,1,296,121311,23,51,0.388286299,1,1,1,1,1,958,131312,23,52,0.292067944,-1,2,1,0,-1,2576,121313,23,53,0.197048225,-1,1,1,1,1,487,131314,23,54,0.135256479,-1,2,1,0,-1,885,121315,23,55,0.142257735,-1,3,0,0,1,17,131316,23,56,0.183837029,-1,2,0,1,-1,619,121317,23,57,0.152680934,-1,1,1,1,1,565,131318,23,58,0.155403477,-1,3,0,1,-1,1104,121319,23,59,0.115352534,1,1,1,1,1,1004,131320,23,60,0.110658403,1,3,1,1,1,789,141321,24,1,0.406288331,-1,1,0,1,-1,1677,11322,24,2,0.368523431,1,2,0,0,1,1396,21323,24,3,0.415594206,-1,3,0,0,1,775,31324,24,4,0.317245983,-1,2,0,0,1,1230,41325,24,5,0.257395874,1,1,1,1,1,791,51326,24,6,0.320653581,-1,3,1,0,-1,822,41327,24,7,0.394777405,-1,1,1,1,1,1047,51328,24,8,0.413949,1,3,0,0,1,902,61329,24,9,0.405647176,-1,2,0,1,-1,1574,51330,24,10,0.51744888,-1,3,0,0,1,1271,61331,24,11,0.548301235,1,1,0,1,-1,1069,51332,24,12,0.509835338,-1,2,1,1,1,918,61333,24,13,0.460084823,-1,1,1,1,1,806,71334,24,14,0.342731024,-1,2,1,1,1,809,81335,24,15,0.335619684,-1,3,0,0,1,643,91336,24,16,0.439888668,1,2,1,1,1,630,101337,24,17,0.385073676,-1,1,1,1,1,694,111338,24,18,0.329809301,-1,3,0,0,1,606,121339,24,19,0.265435244,-1,1,1,1,1,605,131340,24,20,0.204732143,1,3,0,0,1,712,141341,24,21,0.23188889,-1,3,1,0,-1,776,131342,24,22,0.276714772,-1,1,1,1,1,572,141343,24,23,0.247663649,-1,2,1,1,1,629,151344,24,24,0.2209478,1,1,1,1,1,591,161345,24,25,0.180204424,1,3,0,0,1,726,171346,24,26,0.359336924,-1,2,1,1,1,631,181347,24,27,0.344766733,1,3,0,0,1,556,191348,24,28,0.236405266,-1,2,1,1,1,648,201349,24,29,0.244070952,-1,1,0,1,-1,630,191350,24,30,0.37325223,-1,2,0,1,-1,694,181351,24,31,0.55077688,1,3,0,0,1,615,191352,24,32,0.560887464,-1,1,1,1,1,784,201353,24,33,0.552982229,1,3,0,0,1,790,211354,24,34,0.531371972,-1,1,1,1,1,686,221355,24,35,0.593208975,1,2,1,1,1,558,231356,24,36,0.681680785,-1,1,0,1,-1,677,221357,24,37,0.682836312,1,3,0,0,1,615,231358,24,38,0.623217941,-1,2,1,1,1,533,241359,24,39,0.519716549,1,3,0,0,1,695,251360,24,40,0.584188255,1,2,1,1,1,863,261361,24,41,0.621676857,1,2,0,1,-1,614,251362,24,42,0.697036607,1,3,1,0,-1,734,241363,24,43,0.639701123,1,1,1,1,1,647,251364,24,44,0.701121605,1,3,1,0,-1,741,241365,24,45,0.703414722,1,2,0,1,-1,670,231366,24,46,0.745572265,-1,1,0,1,-1,638,221367,24,47,0.791390224,1,2,0,0,1,1175,231368,24,48,0.827943987,1,1,1,0,-1,894,221369,24,49,0.892993366,1,3,1,1,1,1575,231370,24,50,0.767595129,1,1,1,1,1,1694,241371,24,51,0.889909679,1,2,0,0,1,647,251372,24,52,0.888123815,1,3,0,0,1,1878,261373,24,53,0.776459355,1,2,0,0,1,1448,271374,24,54,0.831143629,1,3,0,0,1,1293,281375,24,55,0.818072818,1,1,1,1,1,1112,291376,24,56,0.87736145,1,3,0,0,1,1216,301377,24,57,0.833387655,1,2,0,1,-1,1702,291378,24,58,0.82524551,1,1,1,1,1,1446,301379,24,59,0.697362763,1,2,1,0,-1,1199,291380,24,60,0.662309506,1,1,1,1,1,750,301381,25,1,0.474148666,1,2,1,0,-1,1766,91382,25,2,0.575349481,-1,3,0,0,1,901,101383,25,3,0.623938906,1,1,1,1,1,702,111384,25,4,0.5713014,1,3,0,0,1,845,121385,25,5,0.537643825,-1,2,0,1,-1,879,111386,25,6,0.411239998,1,1,0,1,-1,753,101387,25,7,0.357847182,-1,2,0,1,-1,967,91388,25,8,0.38710604,-1,1,1,0,-1,536,81389,25,9,0.344071371,-1,3,0,0,1,1047,91390,25,10,0.279755759,-1,1,1,1,1,518,101391,25,11,0.335073001,-1,2,1,1,1,792,111392,25,12,0.222930759,1,3,1,0,-1,736,101393,25,13,0.20513601,-1,2,0,1,-1,777,91394,25,14,0.158214428,1,3,0,1,-1,494,81395,25,15,0.106874176,-1,1,1,1,1,728,91396,25,16,0.133307633,-1,3,0,0,1,752,101397,25,17,0.103260029,-1,2,1,1,1,774,111398,25,18,0.119530755,-1,1,0,1,-1,528,101399,25,19,0.256656285,-1,2,0,0,1,1018,111400,25,20,0.27579635,-1,1,1,1,1,807,121401,25,21,0.204607149,-1,1,1,1,1,624,131402,25,22,0.173151964,-1,2,1,0,-1,841,121403,25,23,0.157251427,1,3,1,0,-1,719,111404,25,24,0.130205605,-1,2,1,1,1,761,121405,25,25,0.346113178,-1,1,1,1,1,735,131406,25,26,0.541292518,-1,3,1,0,-1,575,121407,25,27,0.598823014,1,1,0,1,-1,639,111408,25,28,0.505801867,-1,3,0,0,1,760,121409,25,29,0.458104442,1,2,1,1,1,1152,131410,25,30,0.467090727,-1,3,0,0,1,1624,141411,25,31,0.478582607,-1,1,0,1,-1,770,131412,25,32,0.567321531,1,2,1,1,1,598,141413,25,33,0.542928822,-1,1,1,1,1,624,151414,25,34,0.505317085,-1,2,0,0,1,927,161415,25,35,0.365958044,-1,3,0,0,1,728,171416,25,36,0.421023602,-1,2,0,0,1,743,181417,25,37,0.397392948,-1,1,1,1,1,616,191418,25,38,0.455421737,1,3,1,1,1,567,201419,25,39,0.642470672,1,1,0,1,-1,607,191420,25,40,0.742341417,1,3,0,0,1,680,201421,25,41,0.79456321,1,3,0,0,1,567,211422,25,42,0.775203568,-1,1,1,1,1,608,221423,25,43,0.79660917,1,2,1,1,1,671,231424,25,44,0.740233275,1,1,1,1,1,600,241425,25,45,0.755369205,1,3,0,0,1,640,251426,25,46,0.843554962,1,2,0,0,1,743,261427,25,47,0.840654371,1,3,0,1,-1,825,251428,25,48,0.885860648,1,2,0,1,-1,774,241429,25,49,0.841681014,1,1,1,1,1,625,251430,25,50,0.896134043,1,2,0,0,1,624,261431,25,51,0.878630763,1,3,0,0,1,656,271432,25,52,0.659330943,1,1,1,1,1,686,281433,25,53,0.617707345,1,3,0,1,-1,537,271434,25,54,0.554407604,1,1,1,0,-1,479,261435,25,55,0.381937608,-1,2,1,0,-1,665,251436,25,56,0.335943846,-1,1,1,1,1,503,261437,25,57,0.321223431,-1,3,0,0,1,807,271438,25,58,0.339679828,-1,2,0,1,-1,872,261439,25,59,0.190777852,1,3,1,0,-1,559,251440,25,60,0.246903134,-1,2,1,1,1,737,261441,26,1,0.512875686,1,3,0,0,1,2891,01442,26,2,0.477734236,1,1,0,1,-1,1233,-11443,26,3,0.500457774,1,2,1,1,1,1710,01444,26,4,0.529711612,-1,1,0,1,-1,1259,-11445,26,5,0.446218343,-1,3,0,0,1,1112,01446,26,6,0.466307914,-1,2,0,0,1,1846,11447,26,7,0.486089402,1,3,0,0,1,1075,21448,26,8,0.442001874,-1,2,0,1,-1,1144,11449,26,9,0.428064522,1,1,1,1,1,928,21450,26,10,0.372882987,-1,2,1,0,-1,2156,11451,26,11,0.305082543,-1,3,0,0,1,1043,21452,26,12,0.328567842,-1,1,1,1,1,725,31453,26,13,0.453968226,1,3,1,0,-1,1035,21454,26,14,0.290893773,-1,1,1,1,1,733,31455,26,15,0.291994135,1,2,0,0,1,1180,41456,26,16,0.194995159,-1,1,1,1,1,1271,51457,26,17,0.120440504,-1,3,0,0,1,1099,61458,26,18,0.246475889,-1,2,0,1,-1,995,51459,26,19,0.265377227,1,3,0,0,1,967,61460,26,20,0.242399846,1,2,0,1,-1,1493,51461,26,21,0.146512585,-1,1,1,1,1,688,61462,26,22,0.242013147,-1,2,1,0,-1,2304,51463,26,23,0.314325986,-1,3,0,0,1,1332,61464,26,24,0.322129201,-1,2,0,1,-1,2098,51465,26,25,0.22912759,-1,1,1,1,1,1047,61466,26,26,0.256494515,-1,3,1,0,-1,1392,51467,26,27,0.120861983,-1,1,1,1,1,3270,61468,26,28,0.132375669,-1,3,1,0,-1,4262,51469,26,29,0.151987511,-1,2,0,0,1,1596,61470,26,30,0.127990914,1,3,0,0,1,1209,71471,26,31,0.110389509,NaN,1,NaN,NaN,NaN,NaN,71472,26,32,0.108061713,-1,2,1,0,-1,1804,61473,26,33,0.158480425,-1,1,1,1,1,1053,71474,26,34,0.218136321,1,2,1,0,-1,1427,61475,26,35,0.274879591,-1,3,0,0,1,3139,71476,26,36,0.3200486,1,2,0,0,1,1449,81477,26,37,0.413679376,1,1,1,1,1,1615,91478,26,38,0.487757449,-1,3,0,0,1,1361,101479,26,39,0.594092626,1,1,1,1,1,1270,111480,26,40,0.586863969,-1,3,0,0,1,1070,121481,26,41,0.691122221,1,2,1,1,1,1055,131482,26,42,0.834867338,1,3,0,0,1,866,141483,26,43,0.801866541,-1,1,0,1,-1,1166,131484,26,44,0.887361012,1,3,1,0,-1,893,121485,26,45,0.781020494,1,2,0,1,-1,1214,111486,26,46,0.808541314,-1,1,1,1,1,1273,121487,26,47,0.73372104,1,2,1,0,-1,1129,111488,26,48,0.770637349,1,1,0,1,-1,2653,101489,26,49,0.67999845,NaN,3,NaN,NaN,NaN,NaN,101490,26,50,0.749234254,-1,1,1,1,1,1297,111491,26,51,0.802561735,1,2,1,0,-1,922,101492,26,52,0.864162174,1,3,0,0,1,860,111493,26,53,0.751116934,1,2,1,0,-1,1238,101494,26,54,0.764354145,1,3,0,0,1,3825,111495,26,55,0.721506891,1,1,1,1,1,1685,121496,26,56,0.641904462,-1,3,1,0,-1,766,111497,26,57,0.638768951,1,2,0,1,-1,1238,101498,26,58,0.640283909,1,1,1,1,1,765,111499,26,59,0.660943441,1,2,1,1,1,996,121500,26,60,0.564140023,1,1,0,1,-1,786,111501,27,1,0.405726225,-1,2,1,0,-1,4622,-171502,27,2,0.481009251,-1,3,0,0,1,1492,-161503,27,3,0.430619738,-1,1,1,1,1,1292,-151504,27,4,0.328351435,-1,3,1,0,-1,1825,-161505,27,5,0.379092342,1,2,1,0,-1,2865,-171506,27,6,0.321645549,1,1,0,1,-1,2282,-181507,27,7,0.255178961,-1,2,1,1,1,2390,-171508,27,8,0.273091233,-1,1,1,1,1,2125,-161509,27,9,0.447650346,-1,3,0,1,-1,1592,-171510,27,10,0.404312929,-1,1,1,0,-1,1762,-181511,27,11,0.472186638,1,2,0,1,-1,2449,-191512,27,12,0.5224836,-1,3,1,1,1,1567,-181513,27,13,0.381409777,1,2,1,0,-1,1959,-191514,27,14,0.51541017,-1,3,0,0,1,2036,-181515,27,15,0.527657863,1,1,1,1,1,1371,-171516,27,16,0.552371738,1,3,1,1,1,2037,-161517,27,17,0.4911133,1,2,0,0,1,2061,-151518,27,18,0.523422426,-1,1,1,1,1,838,-141519,27,19,0.578257616,1,2,1,1,1,2017,-131520,27,20,0.68136404,1,1,1,0,-1,2794,-141521,27,21,0.742002036,1,3,0,1,-1,3082,-151522,27,22,0.760545328,1,1,1,1,1,1196,-141523,27,23,0.74509977,1,2,1,0,-1,2681,-151524,27,24,0.661259137,1,1,0,1,-1,999,-161525,27,25,0.70399409,1,3,0,0,1,1106,-151526,27,26,0.651903895,1,2,1,1,1,2721,-141527,27,27,0.576431847,1,3,0,0,1,1632,-131528,27,28,0.58211289,1,2,0,0,1,3458,-121529,27,29,0.535574154,1,1,1,1,1,743,-111530,27,30,0.598627579,1,2,1,0,-1,2294,-121531,27,31,0.600343548,1,3,0,0,1,502,-111532,27,32,0.645714443,1,1,1,1,1,1504,-101533,27,33,0.607109585,-1,3,0,0,1,1396,-91534,27,34,0.694447283,1,1,1,1,1,1218,-81535,27,35,0.757666521,1,2,1,1,1,1670,-71536,27,36,0.751199259,1,1,1,1,1,933,-61537,27,37,0.768041185,1,3,1,0,-1,612,-71538,27,38,0.6563692,1,2,0,0,1,2886,-61539,27,39,0.635725955,-1,3,0,0,1,870,-51540,27,40,0.701253251,1,2,0,1,-1,2048,-61541,27,41,0.704046305,1,1,1,1,1,2123,-51542,27,42,0.614944756,1,2,0,1,-1,2034,-61543,27,43,0.51583428,-1,3,0,0,1,832,-51544,27,44,0.508096118,-1,2,0,1,-1,2714,-61545,27,45,0.556518413,-1,1,0,1,-1,2116,-71546,27,46,0.4523198,1,3,0,0,1,790,-61547,27,47,0.40232293,1,1,0,1,-1,1309,-71548,27,48,0.472534539,1,3,0,0,1,1595,-61549,27,49,0.336447181,-1,2,0,1,-1,631,-71550,27,50,0.203171423,-1,3,0,0,1,1939,-61551,27,51,0.255642761,-1,1,1,1,1,626,-51552,27,52,0.15539745,-1,2,0,1,-1,2315,-61553,27,53,0.147203556,-1,1,1,1,1,1391,-51554,27,54,0.17517404,-1,2,1,0,-1,1105,-61555,27,55,0.347312451,1,3,1,0,-1,856,-71556,27,56,0.459044758,-1,2,0,1,-1,1572,-81557,27,57,0.471404413,-1,1,0,1,-1,1451,-91558,27,58,0.410438089,1,3,0,1,-1,1343,-101559,27,59,0.46807883,-1,1,1,0,-1,835,-111560,27,60,0.461554471,1,3,0,1,-1,2410,-121561,28,1,0.593297752,NaN,3,NaN,NaN,NaN,NaN,11562,28,2,0.613529309,-1,1,1,1,1,3017,21563,28,3,0.47126469,1,2,0,0,1,1220,31564,28,4,0.403862589,1,1,1,0,-1,1937,21565,28,5,0.418039294,-1,3,0,1,-1,1015,11566,28,6,0.404772987,1,2,0,1,-1,2473,01567,28,7,0.413064132,-1,3,0,1,-1,1843,-11568,28,8,0.39436348,1,2,0,0,1,1533,01569,28,9,0.517323336,-1,1,1,0,-1,1092,-11570,28,10,0.468076518,1,2,1,1,1,1236,01571,28,11,0.488693273,-1,3,0,0,1,1579,11572,28,12,0.589296845,-1,1,1,1,1,1984,21573,28,13,0.486095532,1,3,0,0,1,907,31574,28,14,0.466296706,-1,1,1,0,-1,288,21575,28,15,0.465702545,-1,2,1,1,1,358,31576,28,16,0.4552217,1,1,1,1,1,349,41577,28,17,0.354884314,1,3,0,1,-1,668,31578,28,18,0.416983366,-1,2,1,1,1,163,41579,28,19,0.336572965,1,3,1,0,-1,354,31580,28,20,0.293849572,1,2,1,1,1,576,41581,28,21,0.276133544,-1,2,1,1,1,736,51582,28,22,0.308442973,1,3,0,1,-1,2359,41583,28,23,0.255996417,-1,1,1,0,-1,2720,31584,28,24,0.370245451,-1,3,0,1,-1,1845,21585,28,25,0.38703098,-1,2,0,0,1,982,31586,28,26,0.426576572,-1,1,1,0,-1,720,21587,28,27,0.347224532,1,2,1,1,1,1107,31588,28,28,0.232546111,-1,1,0,0,1,1968,41589,28,29,0.156289061,-1,3,0,0,1,1281,51590,28,30,0.119294594,-1,1,0,0,1,1171,61591,28,31,0.392993734,1,2,1,1,1,890,71592,28,32,0.390266637,1,3,1,0,-1,909,61593,28,33,0.360146399,-1,2,0,1,-1,1093,51594,28,34,0.438146465,1,3,0,0,1,547,61595,28,35,0.412269151,1,1,1,1,1,828,71596,28,36,0.344275781,1,3,0,0,1,514,81597,28,37,0.444080466,1,2,0,1,-1,1499,71598,28,38,0.392161717,1,1,0,0,1,667,81599,28,39,0.411543058,-1,2,0,1,-1,3189,71600,28,40,0.527033021,1,1,1,0,-1,360,61601,28,41,0.558893462,1,1,1,1,1,432,71602,28,42,0.50687891,1,2,1,0,-1,674,61603,28,43,0.497333436,1,3,0,1,-1,74,51604,28,44,0.472155297,-1,2,0,0,1,446,61605,28,45,0.462837958,-1,1,1,0,-1,833,51606,28,46,0.509681021,-1,3,0,0,1,1047,61607,28,47,0.647435426,1,1,1,1,1,547,71608,28,48,0.586704345,-1,3,1,0,-1,299,61609,28,49,0.699904771,1,2,0,1,-1,771,51610,28,50,0.723648157,-1,3,1,1,1,891,61611,28,51,0.752790845,1,1,0,0,1,859,71612,28,52,0.7531387,1,2,1,0,-1,304,61613,28,53,0.864340065,-1,1,0,1,-1,357,51614,28,54,0.871707453,1,2,0,1,-1,409,41615,28,55,0.791105289,1,3,0,1,-1,160,31616,28,56,0.88216384,1,2,1,1,1,2126,41617,28,57,0.800848128,1,1,1,1,1,1921,51618,28,58,0.694196132,1,3,1,1,1,921,61619,28,59,0.690337581,1,1,1,1,1,1096,71620,28,60,0.685851252,-1,3,0,1,-1,1268,61621,29,1,0.513068448,-1,3,0,0,1,1217,-21622,29,2,0.523984872,-1,1,0,1,-1,1087,-31623,29,3,0.606654653,1,2,0,1,-1,1615,-41624,29,4,0.602412783,1,1,1,1,1,1081,-31625,29,5,0.487385673,1,3,0,0,1,1015,-21626,29,6,0.415297177,-1,2,0,1,-1,2057,-31627,29,7,0.497276252,-1,3,1,0,-1,2407,-41628,29,8,0.508647556,1,2,1,0,-1,3760,-51629,29,9,0.446939078,1,1,1,1,1,880,-41630,29,10,0.557605498,-1,2,0,1,-1,1128,-51631,29,11,0.644541648,-1,3,0,0,1,855,-41632,29,12,0.74521836,1,1,1,1,1,1233,-31633,29,13,0.752043515,1,3,0,0,1,1119,-21634,29,14,0.719110611,1,1,0,1,-1,887,-31635,29,15,0.856459903,1,2,1,1,1,1065,-21636,29,16,0.866445176,1,1,1,1,1,919,-11637,29,17,0.746714838,-1,3,0,0,1,896,01638,29,18,0.771049627,1,2,1,1,1,1576,11639,29,19,0.701596281,1,3,0,0,1,848,21640,29,20,0.509517705,-1,2,0,0,1,1647,31641,29,21,0.457251977,-1,2,1,1,1,1624,41642,29,22,0.417997464,-1,3,0,0,1,943,51643,29,23,0.427978969,-1,1,1,1,1,1168,61644,29,24,0.396673797,-1,3,1,0,-1,961,51645,29,25,0.343140789,-1,2,1,0,-1,2031,41646,29,26,0.252388969,1,1,1,1,1,697,51647,29,27,0.283270439,-1,2,1,1,1,895,61648,29,28,0.171971415,-1,1,0,1,-1,936,51649,29,29,0.176181784,-1,3,0,0,1,840,61650,29,30,0.196362027,-1,1,1,1,1,936,71651,29,31,0.239018052,-1,2,1,0,-1,736,61652,29,32,0.384834763,-1,3,0,0,1,1440,71653,29,33,0.361824154,-1,2,0,1,-1,2424,61654,29,34,0.43794763,1,3,0,0,1,1023,71655,29,35,0.512225402,1,1,1,1,1,912,81656,29,36,0.589916245,-1,3,0,0,1,992,91657,29,37,0.523528029,-1,2,0,1,-1,2288,81658,29,38,0.540331062,1,1,1,1,1,919,91659,29,39,0.621445551,-1,2,1,0,-1,1240,81660,29,40,0.718759553,1,1,0,1,-1,976,71661,29,41,0.718491273,1,1,1,1,1,1208,81662,29,42,0.754839132,1,2,0,0,1,1896,91663,29,43,0.748830244,1,3,0,0,1,1295,101664,29,44,0.803149846,-1,2,1,1,1,1457,111665,29,45,0.574851822,1,1,1,1,1,896,121666,29,46,0.447826575,-1,3,1,0,-1,863,111667,29,47,0.41062525,-1,1,1,1,1,809,121668,29,48,0.540974626,-1,3,1,0,-1,871,111669,29,49,0.439839305,-1,2,0,0,1,1400,121670,29,50,0.516985008,1,3,0,0,1,1385,131671,29,51,0.400760932,-1,1,1,1,1,848,141672,29,52,0.342494091,-1,2,0,1,-1,1279,131673,29,53,0.28893087,-1,1,0,1,-1,1432,121674,29,54,0.294640985,1,2,0,1,-1,2367,111675,29,55,0.302433367,-1,3,1,0,-1,985,101676,29,56,0.254198342,-1,2,1,0,-1,1559,91677,29,57,0.285368806,1,1,1,1,1,719,101678,29,58,0.498892105,1,3,0,0,1,905,111679,29,59,0.485924459,-1,1,1,1,1,895,121680,29,60,0.450440586,-1,3,0,0,1,849,131681,30,1,0.52751247,-1,2,0,1,-1,1167,31682,30,2,0.442667268,1,3,0,0,1,324,41683,30,3,0.342362253,-1,1,0,0,1,1075,51684,30,4,0.395741842,1,3,0,1,-1,1341,41685,30,5,0.362679854,-1,2,1,1,1,2469,51686,30,6,0.381491452,-1,1,1,1,1,634,61687,30,7,0.341180659,1,2,1,1,1,1205,71688,30,8,0.312738967,-1,1,1,1,1,645,81689,30,9,0.253778574,-1,3,1,0,-1,988,71690,30,10,0.267382333,-1,1,1,1,1,1388,81691,30,11,0.310524812,-1,2,0,1,-1,1330,71692,30,12,0.184070808,-1,3,0,0,1,902,81693,30,13,0.230783008,-1,2,0,1,-1,1742,71694,30,14,0.134240492,-1,3,1,0,-1,772,61695,30,15,0.149246903,-1,1,1,1,1,910,71696,30,16,0.159445156,-1,3,0,0,1,1095,81697,30,17,0.208354788,-1,2,1,1,1,892,91698,30,18,0.148426608,-1,1,1,1,1,688,101699,30,19,0.248561026,-1,2,1,1,1,738,111700,30,20,0.301104547,-1,1,0,1,-1,726,101701,30,21,0.360219874,-1,1,1,1,1,2102,111702,30,22,0.469059591,-1,2,0,1,-1,842,101703,30,23,0.480864057,-1,3,0,1,-1,997,91704,30,24,0.597579617,1,2,1,1,1,1012,101705,30,25,0.527235674,1,1,1,1,1,1027,111706,30,26,0.477065508,-1,3,1,0,-1,1215,101707,30,27,0.417330502,-1,1,1,1,1,653,111708,30,28,0.44935593,1,3,0,0,1,935,121709,30,29,0.50405742,-1,2,0,1,-1,615,111710,30,30,0.416858561,-1,3,0,0,1,770,121711,30,31,0.423797437,1,1,1,1,1,766,131712,30,32,0.360804077,-1,2,0,1,-1,695,121713,30,33,0.339799315,-1,1,1,1,1,702,131714,30,34,0.390281017,-1,2,1,1,1,645,141715,30,35,0.432313409,-1,3,0,0,1,927,151716,30,36,0.454839104,-1,2,0,1,-1,753,141717,30,37,0.401587601,1,1,1,0,-1,513,131718,30,38,0.490410506,-1,3,0,0,1,1196,141719,30,39,0.611011995,1,1,0,1,-1,496,131720,30,40,0.677905077,-1,3,0,0,1,779,141721,30,41,0.790253263,1,3,0,0,1,1061,151722,30,42,0.82485232,1,1,1,1,1,604,161723,30,43,0.884259994,1,2,0,1,-1,838,151724,30,44,0.798961144,1,1,1,1,1,2165,161725,30,45,0.812849768,1,3,1,0,-1,1109,151726,30,46,0.741274573,1,2,1,1,1,907,161727,30,47,0.702551256,1,3,1,0,-1,911,151728,30,48,0.789851496,1,2,1,1,1,649,161729,30,49,0.736954499,-1,1,0,1,-1,579,151730,30,50,0.762504706,-1,2,0,1,-1,867,141731,30,51,0.632514149,-1,3,0,0,1,915,151732,30,52,0.715772152,-1,1,1,1,1,603,161733,30,53,0.711789579,-1,3,0,0,1,854,171734,30,54,0.774561949,1,1,1,1,1,749,181735,30,55,0.695165779,1,2,1,1,1,560,191736,30,56,0.64937895,1,1,0,1,-1,1333,181737,30,57,0.719790519,-1,3,0,0,1,924,191738,30,58,0.59148441,1,2,1,1,1,826,201739,30,59,0.606053932,-1,3,0,0,1,590,211740,30,60,0.68254235,1,2,0,1,-1,716,201741,31,1,0.464113133,-1,2,1,1,1,2129,-31742,31,2,0.444831491,-1,3,0,0,1,774,-21743,31,3,0.465357345,1,1,0,1,-1,910,-31744,31,4,0.390150533,-1,3,0,0,1,1054,-21745,31,5,0.364519961,-1,2,1,1,1,1215,-11746,31,6,0.222033733,-1,1,1,1,1,862,01747,31,7,0.207854708,-1,2,1,1,1,959,11748,31,8,0.197155623,-1,1,1,1,1,1118,21749,31,9,0.199735247,-1,3,0,0,1,799,31750,31,10,0.110838515,-1,1,1,1,1,973,41751,31,11,0.194590947,-1,2,1,1,1,930,51752,31,12,0.261903237,-1,3,0,0,1,717,61753,31,13,0.247798095,1,2,1,1,1,944,71754,31,14,0.148991429,-1,3,0,0,1,911,81755,31,15,0.236802427,-1,1,1,1,1,927,91756,31,16,0.245930676,-1,3,1,0,-1,967,81757,31,17,0.268948916,1,2,0,1,-1,735,71758,31,18,0.211474495,-1,1,1,1,1,1087,81759,31,19,0.182840146,-1,2,1,1,1,983,91760,31,20,0.224522364,-1,1,1,1,1,950,101761,31,21,0.331472898,-1,1,1,1,1,959,111762,31,22,0.338531469,-1,2,1,1,1,975,121763,31,23,0.345328457,-1,3,1,0,-1,718,111764,31,24,0.392008531,-1,2,0,1,-1,743,101765,31,25,0.400506823,1,1,1,1,1,750,111766,31,26,0.253306809,1,3,0,0,1,1437,121767,31,27,0.295158996,1,1,0,1,-1,840,111768,31,28,0.513720115,-1,3,0,0,1,1193,121769,31,29,0.623437992,-1,2,1,1,1,743,131770,31,30,0.598124889,-1,3,0,0,1,870,141771,31,31,0.657964546,1,1,1,1,1,1184,151772,31,32,0.594149897,-1,2,0,1,-1,935,141773,31,33,0.622508723,-1,1,0,1,-1,798,131774,31,34,0.542246321,1,2,1,1,1,743,141775,31,35,0.530483001,1,3,0,0,1,751,151776,31,36,0.633122182,1,2,0,1,-1,782,141777,31,37,0.632293051,1,1,0,0,1,1070,151778,31,38,0.620608738,1,3,1,0,-1,855,141779,31,39,0.529980268,1,1,1,1,1,734,151780,31,40,0.579347683,1,3,0,0,1,920,161781,31,41,0.584379804,-1,3,0,0,1,927,171782,31,42,0.565472539,-1,1,1,1,1,982,181783,31,43,0.514791934,-1,2,0,1,-1,583,171784,31,44,0.609483818,1,1,1,1,1,847,181785,31,45,0.536308785,1,3,1,0,-1,792,171786,31,46,0.557638695,-1,2,0,1,-1,758,161787,31,47,0.541871311,-1,3,0,0,1,791,171788,31,48,0.558545052,-1,2,0,1,-1,799,161789,31,49,0.588210837,1,1,1,1,1,1086,171790,31,50,0.641580809,-1,2,1,1,1,824,181791,31,51,0.645346835,1,3,1,0,-1,727,171792,31,52,0.661611373,-1,1,0,1,-1,759,161793,31,53,0.591125226,NaN,3,NaN,NaN,NaN,NaN,161794,31,54,0.714766007,1,1,1,1,1,1479,171795,31,55,0.798655979,1,2,0,1,-1,935,161796,31,56,0.79578488,-1,1,1,1,1,847,171797,31,57,0.787045789,1,3,0,0,1,864,181798,31,58,0.660028647,1,2,0,1,-1,760,171799,31,59,0.793825326,1,3,0,0,1,711,181800,31,60,0.839778596,1,2,0,1,-1,791,171801,32,1,0.41854908,1,2,0,1,-1,1444,11802,32,2,0.396837898,1,3,0,1,-1,1252,01803,32,3,0.40865897,1,1,0,1,-1,1134,-11804,32,4,0.468628595,-1,3,1,0,-1,940,-21805,32,5,0.493271674,-1,2,1,1,1,2862,-11806,32,6,0.550484621,1,1,1,1,1,871,01807,32,7,0.627941722,1,2,0,1,-1,879,-11808,32,8,0.619010401,-1,1,1,1,1,659,01809,32,9,0.575686407,-1,3,0,0,1,950,11810,32,10,0.590983554,1,1,1,1,1,762,21811,32,11,0.503555023,1,2,0,1,-1,1707,11812,32,12,0.382424797,-1,3,0,0,1,802,21813,32,13,0.355643977,-1,2,0,0,1,3236,31814,32,14,0.307762217,-1,3,0,0,1,901,41815,32,15,0.331775239,1,1,1,1,1,926,51816,32,16,0.382680275,-1,3,0,0,1,780,61817,32,17,0.424651301,-1,2,1,0,-1,976,51818,32,18,0.364763455,-1,1,0,1,-1,1047,41819,32,19,0.382069774,1,2,1,0,-1,1314,31820,32,20,0.367852304,1,1,0,1,-1,835,21821,32,21,0.426557582,-1,3,1,0,-1,688,11822,32,22,0.398388779,-1,1,1,1,1,678,21823,32,23,0.369114318,-1,2,1,1,1,1458,31824,32,24,0.249712805,-1,1,1,1,1,751,41825,32,25,0.233828854,-1,3,0,0,1,932,51826,32,26,0.246378861,-1,2,1,1,1,1366,61827,32,27,0.208934651,-1,3,0,0,1,596,71828,32,28,0.315261177,-1,2,1,1,1,3222,81829,32,29,0.361770582,1,1,1,1,1,740,91830,32,30,0.321540828,-1,2,0,1,-1,1265,81831,32,31,0.311692884,-1,3,0,0,1,782,91832,32,32,0.299928998,-1,1,1,1,1,785,101833,32,33,0.374961208,-1,3,0,0,1,833,111834,32,34,0.364223358,-1,1,0,1,-1,856,101835,32,35,0.378377377,1,2,0,1,-1,1112,91836,32,36,0.404153982,-1,1,1,1,1,1075,101837,32,37,0.44199284,1,3,0,0,1,775,111838,32,38,0.528161667,-1,2,0,1,-1,1555,101839,32,39,0.588649021,-1,3,0,0,1,831,111840,32,40,0.669328558,1,2,1,1,1,986,121841,32,41,0.856219307,-1,1,1,1,1,714,131842,32,42,0.834348879,1,2,0,1,-1,947,121843,32,43,0.773748219,1,3,1,0,-1,814,111844,32,44,0.7809923,1,2,0,1,-1,883,101845,32,45,0.897653141,1,1,1,1,1,365,111846,32,46,0.850543568,1,3,1,0,-1,679,101847,32,47,0.867111643,-1,1,1,1,1,650,111848,32,48,0.874774451,1,3,0,0,1,1183,121849,32,49,0.645071399,-1,2,0,1,-1,955,111850,32,50,0.49584819,1,3,1,0,-1,934,101851,32,51,0.61897792,1,1,1,1,1,1053,111852,32,52,0.584919257,-1,2,1,0,-1,1398,101853,32,53,0.506316249,-1,1,0,0,1,608,111854,32,54,0.475768263,-1,2,1,0,-1,1963,101855,32,55,0.47985686,1,3,0,1,-1,1659,91856,32,56,0.529241955,1,2,1,1,1,1188,101857,32,57,0.469052297,-1,1,1,1,1,733,111858,32,58,0.503983022,1,3,0,0,1,997,121859,32,59,0.50673937,-1,1,1,1,1,850,131860,32,60,0.596224092,1,3,0,0,1,754,141861,33,1,0.472413542,-1,3,0,0,1,1752,11862,33,2,0.478298104,-1,1,1,1,1,1567,21863,33,3,0.370786218,1,2,0,1,-1,1222,11864,33,4,0.392583434,-1,1,1,1,1,1110,21865,33,5,0.387934632,-1,3,0,0,1,702,31866,33,6,0.409361022,-1,2,1,0,-1,990,21867,33,7,0.367507753,-1,3,1,0,-1,1287,11868,33,8,0.29906074,1,2,1,1,1,1911,21869,33,9,0.320808316,-1,1,0,1,-1,836,11870,33,10,0.332963886,-1,2,1,0,-1,1259,01871,33,11,0.394505939,-1,3,0,0,1,1517,11872,33,12,0.389812327,-1,1,1,1,1,814,21873,33,13,0.464088182,1,3,0,0,1,1022,31874,33,14,0.504602004,-1,1,1,1,1,958,41875,33,15,0.520606143,-1,2,0,1,-1,964,31876,33,16,0.48132878,1,1,0,1,-1,954,21877,33,17,0.507342926,1,3,0,0,1,1191,31878,33,18,0.554669427,1,2,1,0,-1,703,21879,33,19,0.533075443,-1,3,0,0,1,1062,31880,33,20,0.420259526,-1,2,0,0,1,687,41881,33,21,0.487623312,-1,2,1,0,-1,1088,31882,33,22,0.605232688,-1,3,0,0,1,906,41883,33,23,0.646161718,1,1,1,1,1,747,51884,33,24,0.637929927,1,3,0,0,1,854,61885,33,25,0.700103215,1,2,0,0,1,670,71886,33,26,0.65131519,-1,1,1,1,1,943,81887,33,27,0.726610006,1,2,0,1,-1,759,71888,33,28,0.741731866,1,1,1,1,1,918,81889,33,29,0.802128784,1,3,1,0,-1,703,71890,33,30,0.696420258,1,1,1,1,1,1006,81891,33,31,0.708949832,1,2,1,1,1,750,91892,33,32,0.749207227,1,3,1,0,-1,814,81893,33,33,0.739309209,1,2,1,1,1,1478,91894,33,34,0.682786232,1,3,0,0,1,951,101895,33,35,0.786784173,1,1,0,1,-1,798,91896,33,36,0.815675554,1,3,0,0,1,975,101897,33,37,0.848815018,1,2,0,0,1,1054,111898,33,38,0.805712309,1,1,1,1,1,807,121899,33,39,0.8591991,-1,2,1,1,1,1253,131900,33,40,0.711878473,1,1,0,1,-1,927,121901,33,41,0.719180941,1,1,1,1,1,783,131902,33,42,0.620921484,1,2,0,1,-1,1174,121903,33,43,0.548117367,1,3,0,0,1,815,131904,33,44,0.542192014,1,2,0,1,-1,678,121905,33,45,0.479374492,-1,1,1,1,1,695,131906,33,46,0.403785885,-1,3,0,0,1,631,141907,33,47,0.398558255,-1,1,0,1,-1,807,131908,33,48,0.336530992,-1,3,0,0,1,846,141909,33,49,0.355016466,-1,2,0,1,-1,702,131910,33,50,0.344276254,-1,3,1,0,-1,943,121911,33,51,0.269283107,-1,1,1,1,1,854,131912,33,52,0.298668122,-1,2,0,0,1,694,141913,33,53,0.363331661,1,1,1,1,1,760,151914,33,54,0.367440213,-1,2,1,0,-1,550,141915,33,55,0.326007332,1,3,0,0,1,788,151916,33,56,0.423968718,-1,2,1,0,-1,546,141917,33,57,0.399914092,1,1,1,1,1,792,151918,33,58,0.417337613,1,3,0,0,1,871,161919,33,59,0.485884211,-1,1,1,1,1,895,171920,33,60,0.469130635,-1,3,1,0,-1,855,161921,34,1,0.435411697,-1,2,0,1,-1,3088,21922,34,2,0.581647494,-1,3,0,0,1,1383,31923,34,3,0.543332656,1,1,1,1,1,1160,41924,34,4,0.545390067,-1,3,0,0,1,808,51925,34,5,0.594898714,1,2,0,1,-1,2048,41926,34,6,0.564436097,1,1,1,1,1,1945,51927,34,7,0.659172264,-1,2,1,1,1,2232,61928,34,8,0.724237388,-1,1,1,1,1,881,71929,34,9,0.747083494,1,3,0,0,1,1664,81930,34,10,0.666891575,1,1,1,1,1,4050,91931,34,11,0.694666852,1,2,1,1,1,1590,101932,34,12,0.770349239,1,3,1,0,-1,1057,91933,34,13,0.764224736,-1,2,1,0,-1,2369,81934,34,14,0.843161949,1,3,0,0,1,1439,91935,34,15,0.848115306,1,1,0,1,-1,705,81936,34,16,0.873782329,1,3,0,0,1,1439,91937,34,17,0.629780103,1,2,1,1,1,1256,101938,34,18,0.649042109,1,1,1,1,1,1127,111939,34,19,0.653610193,1,2,0,1,-1,2135,101940,34,20,0.640475903,-1,1,1,1,1,833,111941,34,21,0.625142009,1,1,0,1,-1,1560,101942,34,22,0.493709061,1,2,1,0,-1,3532,91943,34,23,0.490839261,1,3,1,0,-1,1512,81944,34,24,0.348887829,NaN,2,NaN,NaN,NaN,NaN,81945,34,25,0.445408256,-1,1,1,1,1,4113,91946,34,26,0.474551149,1,3,1,0,-1,1729,81947,34,27,0.515195272,1,1,1,1,1,1248,91948,34,28,0.362951751,-1,3,0,0,1,1280,101949,34,29,0.290511582,-1,2,1,1,1,816,111950,34,30,0.315862107,1,3,1,0,-1,864,101951,34,31,0.302646744,1,1,1,1,1,689,111952,34,32,0.279655971,-1,2,0,1,-1,2217,101953,34,33,0.196151908,-1,1,0,1,-1,888,91954,34,34,0.325631394,1,2,0,0,1,852,101955,34,35,0.299126924,1,3,0,0,1,1072,111956,34,36,0.277883825,-1,2,0,1,-1,2362,101957,34,37,0.314245498,1,1,1,1,1,567,111958,34,38,0.458662576,-1,3,0,0,1,3488,121959,34,39,0.433905823,-1,1,1,1,1,743,131960,34,40,0.393755508,1,3,0,0,1,1009,141961,34,41,0.426788164,1,3,0,0,1,1352,151962,34,42,0.562864536,-1,1,0,1,-1,873,141963,34,43,0.475986277,1,2,0,1,-1,880,131964,34,44,0.471750367,1,1,1,1,1,2417,141965,34,45,0.475644576,1,3,0,0,1,1640,151966,34,46,0.613460225,1,2,0,1,-1,2120,141967,34,47,0.549156296,-1,3,0,0,1,832,151968,34,48,0.528999634,-1,2,1,1,1,2561,161969,34,49,0.542198199,1,1,1,1,1,704,171970,34,50,0.574716491,1,2,1,1,1,1009,181971,34,51,0.42293155,1,3,0,0,1,552,191972,34,52,0.486877892,1,1,1,1,1,1481,201973,34,53,0.372046616,1,3,0,0,1,2243,211974,34,54,0.475991491,1,1,1,1,1,4344,221975,34,55,0.326686631,-1,2,1,1,1,1856,231976,34,56,0.446927264,1,1,0,1,-1,1664,221977,34,57,0.457483797,-1,3,1,0,-1,729,211978,34,58,0.397930561,1,2,0,1,-1,2840,201979,34,59,0.388066396,-1,3,0,0,1,3920,211980,34,60,0.433977989,1,2,1,1,1,2497,221981,35,1,0.475573049,1,1,0,1,-1,1870,-31982,35,2,0.487047321,1,2,1,0,-1,663,-41983,35,3,0.568533803,-1,3,0,0,1,376,-31984,35,4,0.489098341,-1,2,1,0,-1,24,-41985,35,5,0.425752195,1,1,1,1,1,439,-31986,35,6,0.454342259,-1,3,0,0,1,495,-21987,35,7,0.394205238,1,1,0,0,1,815,-11988,35,8,0.509251135,-1,3,1,1,1,384,01989,35,9,0.696114829,1,2,0,0,1,360,11990,35,10,0.678405106,1,3,1,1,1,343,21991,35,11,0.735942237,1,1,1,0,-1,559,11992,35,12,0.752462283,1,2,1,1,1,1311,21993,35,13,0.688524597,1,1,1,1,1,671,31994,35,14,0.602862513,1,2,0,1,-1,488,21995,35,15,0.518973092,-1,3,0,0,1,576,31996,35,16,0.500222495,-1,2,1,0,-1,376,21997,35,17,0.511272671,1,1,1,1,1,408,31998,35,18,0.687251766,-1,3,0,1,-1,424,21999,35,19,0.667010501,1,1,1,0,-1,552,12000,35,20,0.705382857,-1,3,0,1,-1,535,02001,35,21,0.77989381,1,2,0,1,-1,696,-12002,35,22,0.697929826,1,3,0,1,-1,647,-22003,35,23,0.643642699,1,1,1,0,-1,1648,-32004,35,24,0.67060629,1,3,1,1,1,528,-22005,35,25,0.605230283,-1,2,0,1,-1,464,-32006,35,26,0.639606677,1,1,0,0,1,3616,-22007,35,27,0.586779831,1,2,0,0,1,1008,-12008,35,28,0.53130587,1,1,1,0,-1,376,-22009,35,29,0.640486597,1,3,1,1,1,504,-12010,35,30,0.63863304,-1,1,1,1,1,447,02011,35,31,0.739207429,1,2,0,1,-1,184,-12012,35,32,0.695330662,1,3,0,0,1,583,02013,35,33,0.753706371,1,2,0,0,1,496,12014,35,34,0.66892236,-1,3,0,0,1,559,22015,35,35,0.659832585,1,1,1,1,1,264,32016,35,36,0.659757321,1,3,0,1,-1,431,22017,35,37,0.632905204,-1,2,0,0,1,512,32018,35,38,0.664010428,-1,1,0,0,1,319,42019,35,39,0.579157637,-1,2,0,0,1,142,52020,35,40,0.593290597,1,1,1,1,1,144,62021,35,41,0.564862704,-1,3,0,1,-1,191,52022,35,42,0.480119298,1,1,0,0,1,344,62023,35,43,0.394505591,1,2,1,0,-1,400,52024,35,44,0.383087671,-1,1,1,1,1,561,62025,35,45,0.244563919,-1,3,0,1,-1,7,52026,35,46,0.28945256,1,2,1,1,1,487,62027,35,47,0.245416392,-1,3,0,1,-1,175,52028,35,48,0.32138518,1,2,1,1,1,913,62029,35,49,0.270278444,1,1,1,1,1,1528,72030,35,50,0.204255101,-1,2,0,1,-1,439,62031,35,51,0.107073912,-1,3,0,1,-1,2311,52032,35,52,0.107053088,-1,1,1,0,-1,233,42033,35,53,0.12192927,-1,3,0,1,-1,384,32034,35,54,0.128002553,1,1,1,1,1,464,42035,35,55,0.121548453,-1,2,1,1,1,456,52036,35,56,0.263728055,-1,1,1,1,1,385,62037,35,57,0.239756803,-1,3,0,1,-1,824,52038,35,58,0.262471823,1,2,1,1,1,3008,62039,35,59,0.240744344,1,3,1,1,1,96,72040,35,60,0.351876958,1,2,1,1,1,696,82041,36,1,0.546654686,-1,2,0,0,1,3590,-32042,36,2,0.584796673,-1,3,1,1,1,1171,-22043,36,3,0.527468973,1,1,1,0,-1,2331,-32044,36,4,0.571846652,-1,3,0,0,1,2744,-22045,36,5,0.505746747,1,2,1,1,1,748,-12046,36,6,0.669890713,1,1,1,0,-1,916,-22047,36,7,0.766718314,1,2,1,1,1,1431,-12048,36,8,0.746825141,1,1,1,1,1,1400,02049,36,9,0.772629172,-1,3,0,0,1,1519,12050,36,10,0.752256838,1,1,1,1,1,813,22051,36,11,0.774588064,1,2,1,1,1,1190,32052,36,12,0.75804523,-1,3,0,0,1,676,42053,36,13,0.747322862,1,2,1,1,1,909,52054,36,14,0.702931197,1,3,0,0,1,1142,62055,36,15,0.614615881,1,1,1,1,1,1089,72056,36,16,0.688040796,1,3,0,0,1,803,82057,36,17,0.766768668,1,2,1,1,1,1180,92058,36,18,0.855870284,1,1,0,1,-1,1013,82059,36,19,0.842527091,-1,2,1,1,1,1220,92060,36,20,0.753839976,1,1,0,1,-1,810,82061,36,21,0.744755466,1,3,0,0,1,808,92062,36,22,0.775744666,1,1,1,1,1,1057,102063,36,23,0.822754373,1,2,0,1,-1,735,92064,36,24,0.683242136,1,1,0,1,-1,866,82065,36,25,0.724914969,1,3,1,0,-1,695,72066,36,26,0.656117216,1,2,1,1,1,767,82067,36,27,0.611573988,-1,3,1,0,-1,871,72068,36,28,0.51279843,1,2,0,1,-1,929,62069,36,29,0.516208126,-1,1,1,1,1,579,72070,36,30,0.517581686,-1,2,1,1,1,1611,82071,36,31,0.551245458,-1,3,0,0,1,964,92072,36,32,0.567520682,1,1,1,1,1,880,102073,36,33,0.545328437,1,3,0,0,1,782,112074,36,34,0.500539147,1,1,1,1,1,741,122075,36,35,0.318296756,-1,2,0,1,-1,1114,112076,36,36,0.34611328,-1,1,0,1,-1,1022,102077,36,37,0.240335717,-1,3,0,0,1,722,112078,36,38,0.219733756,-1,2,0,1,-1,685,102079,36,39,0.177338934,-1,3,1,0,-1,1069,92080,36,40,0.103404454,-1,2,0,1,-1,674,82081,36,41,0.16788242,-1,1,1,1,1,526,92082,36,42,0.110496718,1,2,0,0,1,1096,102083,36,43,0.249795265,-1,3,0,0,1,918,112084,36,44,0.356993763,1,2,1,1,1,1080,122085,36,45,0.277627306,-1,1,1,1,1,767,132086,36,46,0.245092903,1,3,0,0,1,1216,142087,36,47,0.280342347,1,1,1,1,1,988,152088,36,48,0.343258884,-1,3,1,0,-1,950,142089,36,49,0.199254493,1,2,1,0,-1,1747,132090,36,50,0.192640458,-1,3,0,0,1,888,142091,36,51,0.131603634,-1,1,1,1,1,660,152092,36,52,0.11391485,-1,2,0,1,-1,1653,142093,36,53,0.301223281,-1,1,1,1,1,959,152094,36,54,0.381256725,-1,2,0,1,-1,1598,142095,36,55,0.321581499,-1,3,0,0,1,683,152096,36,56,0.248048458,-1,2,0,1,-1,1915,142097,36,57,0.232128683,1,1,1,1,1,573,152098,36,58,0.279798375,-1,3,0,0,1,787,162099,36,59,0.215959621,-1,1,0,1,-1,1061,152100,36,60,0.237596875,-1,3,0,0,1,965,162101,37,1,0.445052923,1,2,1,1,1,4922,92102,37,2,0.561482866,1,3,1,0,-1,1835,82103,37,3,0.627960978,-1,1,1,0,-1,1518,72104,37,4,0.527349412,-1,3,0,0,1,2191,82105,37,5,0.404005849,-1,2,1,1,1,1392,92106,37,6,0.365613165,-1,1,1,1,1,668,102107,37,7,0.374086769,1,2,1,0,-1,1040,92108,37,8,0.42279915,-1,1,1,0,-1,1107,82109,37,9,0.486618397,1,3,0,1,-1,1363,72110,37,10,0.340833479,-1,1,0,1,-1,460,62111,37,11,0.231474479,-1,2,0,0,1,1038,72112,37,12,0.279562408,-1,3,0,0,1,1457,82113,37,13,0.292678106,-1,2,0,1,-1,660,72114,37,14,0.23733819,-1,3,0,1,-1,777,62115,37,15,0.184471075,1,1,1,1,1,663,72116,37,16,0.249759532,-1,3,0,1,-1,1783,62117,37,17,0.193132229,1,2,0,0,1,3714,72118,37,18,0.201154253,1,1,1,0,-1,1585,62119,37,19,0.217935018,-1,2,0,0,1,1502,72120,37,20,0.233552378,1,1,1,1,1,953,82121,37,21,0.201142441,1,3,0,1,-1,1554,72122,37,22,0.205470131,-1,1,0,0,1,1308,82123,37,23,0.164344932,-1,2,0,0,1,2097,92124,37,24,0.252354489,-1,1,0,1,-1,1366,82125,37,25,0.383480319,-1,3,0,0,1,1493,92126,37,26,0.352220748,-1,2,0,0,1,2282,102127,37,27,0.340019588,-1,3,1,1,1,826,112128,37,28,0.383599304,1,2,0,1,-1,1784,102129,37,29,0.382988418,1,1,1,1,1,956,112130,37,30,0.479009856,1,2,1,0,-1,974,102131,37,31,0.574709072,1,3,0,0,1,2243,112132,37,32,0.697824522,1,1,1,0,-1,1865,102133,37,33,0.662282209,-1,3,0,0,1,1405,112134,37,34,0.590817562,-1,1,1,1,1,999,122135,37,35,0.591287373,1,2,0,1,-1,2757,112136,37,36,0.678480441,1,1,1,1,1,730,122137,37,37,0.505231808,-1,3,0,1,-1,1704,112138,37,38,0.449701444,-1,2,1,1,1,1467,122139,37,39,0.465025905,-1,3,0,0,1,1716,132140,37,40,0.638747993,1,2,1,0,-1,2056,122141,37,41,0.573056106,1,1,1,0,-1,947,112142,37,42,0.599921751,-1,2,1,0,-1,1156,102143,37,43,0.640888576,1,3,0,1,-1,679,92144,37,44,0.658369547,-1,2,1,1,1,705,102145,37,45,0.62272178,-1,1,0,1,-1,1672,92146,37,46,0.636737999,-1,3,1,0,-1,1343,82147,37,47,0.711850151,1,1,1,0,-1,668,72148,37,48,0.732372487,1,3,1,1,1,783,82149,37,49,0.788588562,1,2,1,0,-1,1160,72150,37,50,0.835513991,1,3,0,0,1,670,82151,37,51,0.851101964,-1,1,1,1,1,1072,92152,37,52,0.875976277,1,2,0,1,-1,2116,82153,37,53,0.687704892,1,1,1,1,1,610,92154,37,54,0.806545254,-1,2,1,1,1,709,102155,37,55,0.854395031,1,3,0,0,1,1707,112156,37,56,0.849865086,1,2,0,1,-1,2029,102157,37,57,0.889758255,1,1,0,1,-1,1312,92158,37,58,0.881061479,1,3,1,0,-1,1912,82159,37,59,0.896973464,-1,1,1,0,-1,434,72160,37,60,0.840050391,1,3,0,0,1,935,82161,38,1,0.56347609,-1,2,0,1,-1,3065,-72162,38,2,0.622310154,-1,3,0,0,1,2194,-62163,38,3,0.491437558,-1,1,1,1,1,1043,-52164,38,4,0.430215532,1,3,0,0,1,1108,-42165,38,5,0.434283302,-1,2,0,1,-1,3347,-52166,38,6,0.487194852,-1,1,1,1,1,959,-42167,38,7,0.482846061,1,2,1,0,-1,806,-52168,38,8,0.614249452,1,1,0,1,-1,1350,-62169,38,9,0.651550694,1,3,1,0,-1,1392,-72170,38,10,0.588949201,1,1,1,1,1,1772,-62171,38,11,0.461407875,-1,2,1,1,1,604,-52172,38,12,0.400314413,1,3,0,0,1,2435,-42173,38,13,0.442377696,1,2,0,0,1,2378,-32174,38,14,0.379002095,-1,3,0,0,1,972,-22175,38,15,0.356140363,-1,1,1,1,1,1003,-12176,38,16,0.451753631,-1,3,0,0,1,843,02177,38,17,0.337491818,1,2,0,1,-1,753,-12178,38,18,0.360388381,-1,1,0,1,-1,875,-22179,38,19,0.403211255,1,2,1,0,-1,2517,-32180,38,20,0.335701509,-1,1,1,1,1,1186,-22181,38,21,0.333620982,-1,1,1,1,1,1621,-12182,38,22,0.246746613,1,2,0,0,1,2218,02183,38,23,0.276479536,-1,3,0,0,1,1038,12184,38,24,0.211176532,-1,2,1,0,-1,1378,02185,38,25,0.182866537,1,1,1,0,-1,1239,-12186,38,26,0.194543005,1,3,1,0,-1,1384,-22187,38,27,0.250609986,-1,1,1,1,1,1132,-12188,38,28,0.21672813,-1,3,1,0,-1,783,-22189,38,29,0.131142427,-1,2,1,1,1,1659,-12190,38,30,0.100657605,1,3,1,0,-1,1292,-22191,38,31,0.108792111,-1,1,1,1,1,1117,-12192,38,32,0.346692263,-1,2,1,1,1,1801,02193,38,33,0.330484806,-1,1,1,1,1,855,12194,38,34,0.365152427,-1,2,0,0,1,981,22195,38,35,0.433337768,-1,3,1,0,-1,614,12196,38,36,0.389045965,-1,2,1,0,-1,2938,02197,38,37,0.501479213,-1,1,1,1,1,1053,12198,38,38,0.631068154,1,3,0,0,1,1184,22199,38,39,0.675676275,1,1,1,1,1,992,32200,38,40,0.569429138,-1,3,0,0,1,938,42201,38,41,0.461788846,-1,3,0,1,-1,1798,32202,38,42,0.462728207,1,1,1,1,1,882,42203,38,43,0.475452013,-1,2,0,0,1,1376,52204,38,44,0.484858734,-1,1,1,1,1,473,62205,38,45,0.557905177,-1,3,0,0,1,839,72206,38,46,0.487518473,-1,2,1,0,-1,471,62207,38,47,0.503567677,-1,3,0,0,1,2157,72208,38,48,0.490139071,-1,2,1,1,1,2322,82209,38,49,0.518320126,1,1,0,1,-1,944,72210,38,50,0.655998219,-1,2,1,1,1,1735,82211,38,51,0.599441811,-1,3,0,0,1,1029,92212,38,52,0.606927227,-1,1,0,1,-1,1093,82213,38,53,0.551820919,1,3,0,0,1,1062,92214,38,54,0.704764959,1,1,1,1,1,1359,102215,38,55,0.648738648,1,2,0,0,1,1516,112216,38,56,0.555292855,-1,1,0,1,-1,1422,102217,38,57,0.530313868,-1,3,0,0,1,2406,112218,38,58,0.59883856,-1,2,0,1,-1,1141,102219,38,59,0.649857795,-1,3,0,0,1,1485,112220,38,60,0.759361661,1,2,0,1,-1,1681,102221,39,1,0.588280189,1,2,1,1,1,2553,172222,39,2,0.598408739,1,3,0,0,1,2077,182223,39,3,0.600771771,-1,1,1,1,1,837,192224,39,4,0.682261897,1,3,1,0,-1,994,182225,39,5,0.726963762,1,2,1,1,1,1031,192226,39,6,0.699731598,-1,1,1,1,1,1614,202227,39,7,0.732647323,1,2,0,1,-1,1224,192228,39,8,0.821383656,1,1,1,1,1,914,202229,39,9,0.887436549,1,3,1,0,-1,852,192230,39,10,0.840976218,1,1,0,1,-1,1170,182231,39,11,0.832128303,1,2,1,1,1,1079,192232,39,12,0.776633864,1,3,0,1,-1,830,182233,39,13,0.825630174,-1,2,0,1,-1,811,172234,39,14,0.815383127,1,3,0,0,1,844,182235,39,15,0.890465252,1,1,1,1,1,636,192236,39,16,0.830964706,1,3,1,0,-1,1102,182237,39,17,0.868128068,1,2,1,1,1,1737,192238,39,18,0.890942637,-1,1,1,1,1,744,202239,39,19,0.788485639,-1,2,1,1,1,714,212240,39,20,0.702485182,-1,1,1,1,1,1049,222241,39,21,0.661648567,1,3,0,0,1,963,232242,39,22,0.711135433,-1,1,0,1,-1,808,222243,39,23,0.678594289,1,2,1,1,1,679,232244,39,24,0.603610907,1,1,0,0,1,1024,242245,39,25,0.674244507,-1,3,0,0,1,1610,252246,39,26,0.59706862,-1,2,0,1,-1,966,242247,39,27,0.496759249,-1,3,0,0,1,1127,252248,39,28,0.461544146,-1,2,1,1,1,1636,262249,39,29,0.479971409,-1,1,0,1,-1,663,252250,39,30,0.511815593,-1,2,0,1,-1,1138,242251,39,31,0.506112272,1,3,0,0,1,883,252252,39,32,0.509869885,1,1,1,1,1,1149,262253,39,33,0.540192369,1,3,0,0,1,2530,272254,39,34,0.46904147,1,1,1,1,1,850,282255,39,35,0.449303534,-1,2,0,1,-1,1343,272256,39,36,0.38475043,1,1,1,1,1,1055,282257,39,37,0.366410184,-1,3,0,0,1,883,292258,39,38,0.218000363,-1,2,1,1,1,674,302259,39,39,0.30294335,1,3,1,1,1,2255,312260,39,40,0.361071926,-1,2,0,1,-1,1814,302261,39,41,0.296620001,-1,1,1,1,1,846,312262,39,42,0.207278433,1,2,0,1,-1,2087,302263,39,43,0.226728844,-1,3,1,0,-1,1089,292264,39,44,0.141471082,-1,2,0,1,-1,1668,282265,39,45,0.151611655,-1,1,0,1,-1,545,272266,39,46,0.110715653,-1,3,0,0,1,785,282267,39,47,0.191946981,-1,1,1,1,1,635,292268,39,48,0.183137723,-1,3,0,0,1,781,302269,39,49,0.118411951,1,2,0,1,-1,381,292270,39,50,0.147506199,-1,3,0,1,-1,528,282271,39,51,0.126041381,-1,1,1,1,1,715,292272,39,52,0.130056791,-1,2,1,1,1,1076,302273,39,53,0.139816718,-1,1,1,1,1,602,312274,39,54,0.111772341,-1,2,0,1,-1,678,302275,39,55,0.183496061,-1,3,0,0,1,1131,312276,39,56,0.128571983,-1,2,1,1,1,704,322277,39,57,0.129133822,-1,1,1,1,1,1485,332278,39,58,0.199369226,-1,3,0,0,1,842,342279,39,59,0.170385793,-1,1,1,1,1,701,352280,39,60,0.205287224,-1,3,0,0,1,971,362281,40,1,0.513775916,1,3,0,0,1,1369,-52282,40,2,0.52387171,-1,1,0,1,-1,862,-62283,40,3,0.435456245,-1,2,1,1,1,1444,-52284,40,4,0.397912726,1,1,1,1,1,1055,-42285,40,5,0.470686182,1,3,0,0,1,1245,-32286,40,6,0.506502003,-1,2,0,1,-1,756,-42287,40,7,0.488117325,-1,3,0,0,1,1168,-32288,40,8,0.551820292,1,2,1,1,1,1167,-22289,40,9,0.554699429,1,1,1,1,1,937,-12290,40,10,0.644637324,1,2,1,1,1,1394,02291,40,11,0.655493813,-1,3,0,0,1,1132,12292,40,12,0.634432378,-1,1,0,1,-1,927,02293,40,13,0.605197517,1,3,0,0,1,819,12294,40,14,0.592739195,1,1,0,1,-1,1555,02295,40,15,0.64519582,-1,2,0,1,-1,1137,-12296,40,16,0.778130138,-1,1,1,1,1,799,02297,40,17,0.670158878,1,3,0,0,1,914,12298,40,18,0.628095507,1,2,0,1,-1,1116,02299,40,19,0.66205241,1,3,1,0,-1,896,-12300,40,20,0.682358846,-1,2,1,1,1,1395,02301,40,21,0.522504576,1,2,0,1,-1,818,-12302,40,22,0.609884777,-1,3,1,0,-1,749,-22303,40,23,0.785747361,1,1,1,1,1,772,-12304,40,24,0.860026452,1,3,0,0,1,1610,02305,40,25,0.851755475,-1,2,1,1,1,1168,12306,40,26,0.71754355,-1,1,1,1,1,1096,22307,40,27,0.578289323,-1,2,0,1,-1,1467,12308,40,28,0.524054512,-1,1,1,1,1,677,22309,40,29,0.51389404,1,3,0,0,1,797,32310,40,30,0.58418004,1,1,1,1,1,1299,42311,40,31,0.654055954,1,2,1,1,1,1087,52312,40,32,0.715901968,-1,3,0,0,1,1200,62313,40,33,0.723745488,1,2,0,1,-1,909,52314,40,34,0.607549104,1,3,1,0,-1,1440,42315,40,35,0.583159077,1,1,1,1,1,1671,52316,40,36,0.421244975,1,3,0,0,1,968,62317,40,37,0.359934941,-1,2,1,1,1,777,72318,40,38,0.394946091,-1,1,0,1,-1,761,62319,40,39,0.302614845,-1,2,0,1,-1,853,52320,40,40,0.272835413,-1,1,1,1,1,689,62321,40,41,0.237926235,-1,1,1,1,1,883,72322,40,42,0.365501514,-1,2,0,1,-1,666,62323,40,43,0.335004565,-1,3,0,0,1,838,72324,40,44,0.338799625,1,2,1,1,1,751,82325,40,45,0.319688948,-1,1,1,1,1,760,92326,40,46,0.385552271,1,3,1,0,-1,1396,82327,40,47,0.231503257,-1,1,1,1,1,740,92328,40,48,0.128952696,-1,3,1,0,-1,1023,82329,40,49,0.20229679,-1,2,1,1,1,569,92330,40,50,0.397598734,-1,3,0,0,1,855,102331,40,51,0.438159739,-1,1,0,1,-1,1325,92332,40,52,0.408588361,-1,2,0,1,-1,1543,82333,40,53,0.405750458,1,1,1,1,1,999,92334,40,54,0.352959605,1,2,0,0,1,752,102335,40,55,0.288323734,-1,3,0,0,1,979,112336,40,56,0.419126241,-1,2,1,0,-1,795,102337,40,57,0.500960532,1,1,1,1,1,1074,112338,40,58,0.448087364,-1,3,0,0,1,1044,122339,40,59,0.508613346,1,1,1,1,1,734,132340,40,60,0.392144249,-1,3,0,0,1,1024,142341,41,1,0.546817904,NaN,2,NaN,NaN,NaN,NaN,102342,41,2,0.566121236,1,3,1,0,-1,1812,92343,41,3,0.530920862,1,1,0,1,-1,1904,82344,41,4,0.58378952,1,3,0,0,1,2317,92345,41,5,0.55961716,1,2,1,1,1,2360,102346,41,6,0.582855373,1,1,0,0,1,1502,112347,41,7,0.648395203,1,2,0,0,1,1861,122348,41,8,0.657272335,1,1,1,1,1,1578,132349,41,9,0.733473757,1,3,0,1,-1,1705,122350,41,10,0.72870648,1,1,1,0,-1,1567,112351,41,11,0.659447537,1,2,0,0,1,1874,122352,41,12,0.680870997,-1,3,0,0,1,1767,132353,41,13,0.673679773,1,2,0,1,-1,1906,122354,41,14,0.638251831,-1,3,0,1,-1,3315,112355,41,15,0.671117148,-1,1,1,0,-1,1049,102356,41,16,0.685473066,-1,3,0,0,1,1536,112357,41,17,0.611631115,1,2,0,0,1,1655,122358,41,18,0.630233085,-1,1,1,1,1,1141,132359,41,19,0.739722081,-1,2,1,1,1,1769,142360,41,20,0.705246544,-1,1,1,1,1,1877,152361,41,21,0.69785269,-1,3,0,0,1,1471,162362,41,22,0.684226775,1,1,0,1,-1,3024,152363,41,23,0.776657458,1,2,0,0,1,1562,162364,41,24,0.650366007,1,1,1,1,1,2737,172365,41,25,0.576872029,1,3,0,0,1,1689,182366,41,26,0.502400997,-1,2,0,1,-1,1916,172367,41,27,0.441596159,-1,3,0,0,1,1453,182368,41,28,0.399870481,1,2,1,0,-1,2605,172369,41,29,0.368586969,-1,1,1,1,1,2113,182370,41,30,0.359563198,-1,2,1,1,1,2066,192371,41,31,0.293780668,-1,3,0,0,1,1404,202372,41,32,0.408159268,-1,1,1,1,1,1588,212373,41,33,0.575637058,1,3,0,0,1,2691,222374,41,34,0.562512135,-1,1,1,1,1,1503,232375,41,35,0.48294075,-1,2,0,0,1,1833,242376,41,36,0.489524455,1,1,0,0,1,1705,252377,41,37,0.394886122,-1,3,0,0,1,1754,262378,41,38,0.353731865,1,2,1,1,1,1424,272379,41,39,0.322249235,1,3,1,0,-1,2317,262380,41,40,0.252997304,-1,2,0,1,-1,1972,252381,41,41,0.200849329,-1,1,1,0,-1,1176,242382,41,42,0.359140942,-1,2,0,0,1,2459,252383,41,43,0.372854438,-1,3,0,1,-1,2019,242384,41,44,0.382843989,-1,2,1,1,1,1737,252385,41,45,0.271975287,-1,1,1,1,1,2015,262386,41,46,0.300477363,1,3,0,1,-1,2049,252387,41,47,0.329908448,-1,1,0,1,-1,2141,242388,41,48,0.380636835,1,3,1,1,1,2361,252389,41,49,0.276401777,-1,2,1,1,1,2034,262390,41,50,0.234448862,-1,3,1,0,-1,1843,252391,41,51,0.178098086,-1,1,1,0,-1,1768,242392,41,52,0.275047395,1,2,1,1,1,1970,252393,41,53,0.348126504,-1,1,1,1,1,1832,262394,41,54,0.357368394,-1,2,0,1,-1,2002,252395,41,55,0.352382854,1,3,0,1,-1,2096,242396,41,56,0.428160933,-1,2,1,1,1,1510,252397,41,57,0.269891959,-1,1,1,1,1,1611,262398,41,58,0.364953787,-1,3,0,0,1,1818,272399,41,59,0.316130021,-1,1,1,1,1,2342,282400,41,60,0.334238593,1,3,1,0,-1,2001,272401,42,1,0.478608688,-1,1,1,1,1,1099,-32402,42,2,0.441188934,1,2,0,1,-1,1383,-42403,42,3,0.468208375,-1,3,1,0,-1,1007,-52404,42,4,0.588386981,1,2,0,1,-1,1043,-62405,42,5,0.708939822,1,1,1,1,1,830,-52406,42,6,0.712165976,1,3,0,0,1,919,-42407,42,7,0.710340962,1,1,1,1,1,998,-32408,42,8,0.670642822,1,3,1,0,-1,1020,-42409,42,9,0.776439637,-1,2,0,1,-1,1106,-52410,42,10,0.786354053,1,3,0,0,1,949,-42411,42,11,0.782044943,1,1,1,1,1,594,-32412,42,12,0.856527408,1,2,0,0,1,1179,-22413,42,13,0.884750741,1,1,0,1,-1,776,-32414,42,14,0.839361645,1,2,1,0,-1,1083,-42415,42,15,0.876060165,1,3,0,0,1,945,-32416,42,16,0.767617089,-1,2,0,0,1,1000,-22417,42,17,0.730119916,-1,1,0,1,-1,899,-32418,42,18,0.690261769,-1,3,0,0,1,988,-22419,42,19,0.745271954,1,1,1,1,1,959,-12420,42,20,0.756959128,-1,3,0,0,1,1029,02421,42,21,0.528303208,1,2,0,0,1,945,12422,42,22,0.508382383,-1,3,1,0,-1,1208,02423,42,23,0.608622903,-1,1,1,1,1,1065,12424,42,24,0.421439159,1,3,0,0,1,1023,22425,42,25,0.368265299,-1,2,1,0,-1,1137,12426,42,26,0.393289271,1,1,0,1,-1,884,02427,42,27,0.367610021,-1,2,1,1,1,1130,12428,42,28,0.459199389,1,1,1,1,1,1025,22429,42,29,0.553541887,1,3,0,0,1,1009,32430,42,30,0.448093827,-1,1,0,1,-1,837,22431,42,31,0.444005501,1,2,1,0,-1,1263,12432,42,32,0.454153335,-1,3,0,0,1,933,22433,42,33,0.389080719,-1,2,1,1,1,1268,32434,42,34,0.45696441,1,3,0,0,1,1080,42435,42,35,0.378736365,1,1,1,1,1,724,52436,42,36,0.352932402,-1,3,1,0,-1,869,42437,42,37,0.335491249,-1,2,1,1,1,1193,52438,42,38,0.267196689,1,1,1,1,1,1129,62439,42,39,0.131830092,-1,2,1,0,-1,1240,52440,42,40,0.183788183,-1,1,1,1,1,1066,62441,42,41,0.181520701,-1,3,0,0,1,943,72442,42,42,0.138321115,-1,1,1,1,1,979,82443,42,43,0.21662313,-1,2,1,1,1,1139,92444,42,44,0.200664159,1,1,1,1,1,764,102445,42,45,0.279862293,-1,3,0,0,1,887,112446,42,46,0.427713079,-1,2,1,0,-1,968,102447,42,47,0.326390827,-1,3,0,0,1,1061,112448,42,48,0.232298432,-1,2,0,1,-1,1247,102449,42,49,0.223629474,1,1,1,1,1,772,112450,42,50,0.143474024,-1,2,0,1,-1,1094,102451,42,51,0.196107344,1,3,0,0,1,928,112452,42,52,0.141041696,-1,1,0,1,-1,1038,102453,42,53,0.272974778,-1,3,1,0,-1,866,92454,42,54,0.391588741,-1,1,1,1,1,988,102455,42,55,0.509420325,1,2,1,1,1,1248,112456,42,56,0.492438676,1,1,1,1,1,849,122457,42,57,0.480773601,1,3,0,0,1,1137,132458,42,58,0.508074679,-1,2,0,0,1,1164,142459,42,59,0.465696292,1,3,0,0,1,955,152460,42,60,0.445798961,1,2,0,1,-1,1008,142461,43,1,0.553745238,-1,1,0,1,-1,1142,32462,43,2,0.463904061,-1,2,1,1,1,908,42463,43,3,0.629388688,1,3,0,0,1,558,52464,43,4,0.580200658,-1,2,0,1,-1,763,42465,43,5,0.55282456,1,1,1,1,1,576,52466,43,6,0.501349264,-1,3,0,0,1,521,62467,43,7,0.464478343,1,1,1,1,1,618,72468,43,8,0.359478856,-1,3,0,1,-1,711,62469,43,9,0.333093052,-1,2,0,1,-1,834,52470,43,10,0.390123174,-1,3,0,0,1,802,62471,43,11,0.494495211,-1,1,0,1,-1,707,52472,43,12,0.449461578,-1,2,0,0,1,624,62473,43,13,0.499936796,-1,1,1,1,1,711,72474,43,14,0.470565466,-1,2,1,0,-1,727,62475,43,15,0.405406645,1,3,1,0,-1,668,52476,43,16,0.3210717,1,2,0,0,1,814,62477,43,17,0.263633193,-1,1,1,1,1,694,72478,43,18,0.2945464,-1,3,0,0,1,682,82479,43,19,0.276027534,1,1,1,1,1,651,92480,43,20,0.300442087,-1,3,0,0,1,721,102481,43,21,0.260046937,1,3,0,0,1,688,112482,43,22,0.209904295,-1,1,1,1,1,682,122483,43,23,0.190780427,-1,2,0,0,1,831,132484,43,24,0.231961297,1,1,1,1,1,769,142485,43,25,0.193574047,-1,3,1,0,-1,578,132486,43,26,0.240956974,-1,2,1,0,-1,658,122487,43,27,0.323868513,-1,3,1,0,-1,543,112488,43,28,0.402355427,1,2,1,0,-1,547,102489,43,29,0.424636892,-1,1,1,1,1,720,112490,43,30,0.518747634,1,2,1,1,1,962,122491,43,31,0.490645993,1,3,0,0,1,574,132492,43,32,0.516468389,-1,1,1,1,1,683,142493,43,33,0.466184263,1,3,0,0,1,546,152494,43,34,0.390257822,-1,1,0,1,-1,723,142495,43,35,0.402610328,-1,2,1,0,-1,777,13