"","SubID","trial_num","pUP","stock_outcome","Advisor","AdvisorCorrect","choice","outcome","rt","tally"
"1",1,1,0.584800639515743,1,3,0,0,1,3182,17
"2",1,2,0.510771745540332,1,1,1,1,1,2036,18
"3",1,3,0.552771415693343,1,2,1,1,1,2354,19
"4",1,4,0.492736881362366,1,1,1,1,1,1388,20
"5",1,5,0.465234498416679,1,3,0,0,1,1386,21
"6",1,6,0.500273344243557,-1,2,1,1,1,1652,22
"7",1,7,0.381700263514925,-1,3,1,0,-1,1020,21
"8",1,8,0.277252612318162,-1,2,0,1,-1,1102,20
"9",1,9,0.300059289360435,1,1,0,1,-1,823,19
"10",1,10,0.255691286845056,-1,2,1,1,1,1909,20
"11",1,11,0.140700029876824,-1,3,0,0,1,864,21
"12",1,12,0.236749370942613,1,1,0,1,-1,450,20
"13",1,13,0.224076552165031,-1,3,0,0,1,1216,21
"14",1,14,0.35543126471074,-1,1,1,1,1,726,22
"15",1,15,0.278556773337989,1,2,0,1,-1,1318,21
"16",1,16,0.253737540487972,-1,1,1,1,1,1102,22
"17",1,17,0.434506221606579,1,3,0,0,1,1364,23
"18",1,18,0.408942181469051,-1,2,0,1,-1,1146,22
"19",1,19,0.315193543351136,1,3,0,0,1,869,23
"20",1,20,0.372725628800273,-1,2,0,1,-1,1107,22
"21",1,21,0.393206156004952,1,2,1,0,-1,2027,21
"22",1,22,0.358076954724651,-1,3,0,0,1,2056,22
"23",1,23,0.561152072963949,-1,1,1,1,1,853,23
"24",1,24,0.452877805443848,-1,3,1,0,-1,928,22
"25",1,25,0.483187618853606,1,2,1,1,1,897,23
"26",1,26,0.543941560880578,-1,1,0,1,-1,956,22
"27",1,27,0.610704938077733,-1,2,0,1,-1,1236,21
"28",1,28,0.620237718280698,1,1,1,1,1,789,22
"29",1,29,0.639049654688825,1,3,0,0,1,1036,23
"30",1,30,0.668670322582019,1,1,1,1,1,739,24
"31",1,31,0.688184323256024,1,2,0,1,-1,934,23
"32",1,32,0.649346260648296,1,3,1,0,-1,901,22
"33",1,33,0.658778692572741,-1,2,1,1,1,823,23
"34",1,34,0.707915565540638,-1,3,0,0,1,1588,24
"35",1,35,0.752756821939956,1,1,1,1,1,596,25
"36",1,36,0.588924082930121,-1,3,0,0,1,786,26
"37",1,37,0.463572140212231,-1,2,0,1,-1,963,25
"38",1,38,0.432556082608437,-1,1,1,1,1,1187,26
"39",1,39,0.350324610526683,-1,2,1,1,1,983,27
"40",1,40,0.408867060953865,1,1,1,1,1,801,28
"41",1,41,0.5147779650599,1,1,1,1,1,998,29
"42",1,42,0.486636151353661,-1,2,0,1,-1,895,28
"43",1,43,0.507656962557094,1,3,1,0,-1,1231,27
"44",1,44,0.519959223166588,1,2,1,1,1,662,28
"45",1,45,0.536044410545407,1,1,1,1,1,1297,29
"46",1,46,0.627791280126401,1,3,0,0,1,859,30
"47",1,47,0.668403836361154,-1,1,0,1,-1,893,29
"48",1,48,0.659245883008305,1,3,0,0,1,1149,30
"49",1,49,0.765985581013531,1,2,1,1,1,642,31
"50",1,50,0.751650963567814,1,3,0,0,1,1170,32
"51",1,51,0.808154913654734,1,1,0,1,-1,694,31
"52",1,52,0.849681930251758,1,2,0,1,-1,1047,30
"53",1,53,0.808273867545474,-1,1,1,1,1,712,31
"54",1,54,0.792993821857441,1,2,0,1,-1,851,30
"55",1,55,0.6976625452915,1,3,0,0,1,1051,31
"56",1,56,0.677156432497942,1,2,1,1,1,891,32
"57",1,57,0.581369483795588,-1,1,1,1,1,733,33
"58",1,58,0.585956553619075,-1,3,0,0,1,1207,34
"59",1,59,0.530491032316093,1,1,1,1,1,848,35
"60",1,60,0.571525018044884,1,3,1,1,1,1108,36
"61",2,1,0.524546198174357,1,1,1,1,1,1357,1
"62",2,2,0.553902954119509,1,2,0,1,-1,1063,0
"63",2,3,0.585051493531032,-1,3,0,0,1,1016,1
"64",2,4,0.687692052149418,1,2,1,1,1,1761,2
"65",2,5,0.748669266626369,1,1,1,1,1,920,3
"66",2,6,0.740485073133981,1,3,1,0,-1,864,2
"67",2,7,0.754365273866494,1,1,0,1,-1,841,1
"68",2,8,0.83907256052426,1,3,0,0,1,1393,2
"69",2,9,0.844673407058336,1,2,0,1,-1,1097,1
"70",2,10,0.741859395626744,1,3,0,0,1,928,2
"71",2,11,0.75577473613764,1,1,1,1,1,680,3
"72",2,12,0.703819255479831,1,2,0,1,-1,633,2
"73",2,13,0.665427731949977,1,1,1,1,1,1032,3
"74",2,14,0.455678716799217,-1,2,1,0,-1,952,2
"75",2,15,0.482892318174998,-1,3,0,0,1,712,3
"76",2,16,0.344733039338568,1,2,0,0,1,1249,4
"77",2,17,0.402519225601009,-1,1,0,1,-1,576,3
"78",2,18,0.291290886584086,-1,3,1,0,-1,752,2
"79",2,19,0.348452969960979,-1,1,0,1,-1,856,1
"80",2,20,0.328320255429478,-1,3,0,0,1,1280,2
"81",2,21,0.382430699071386,-1,2,0,0,1,1233,3
"82",2,22,0.40257454042718,1,3,0,0,1,1080,4
"83",2,23,0.331136409361299,-1,1,1,1,1,1688,5
"84",2,24,0.248488877376704,-1,3,1,0,-1,4898,4
"85",2,25,0.25023017329025,-1,2,0,0,1,1504,5
"86",2,26,0.303556433106892,-1,1,1,1,1,666,6
"87",2,27,0.502278612523339,-1,2,1,0,-1,1624,5
"88",2,28,0.566940395996916,-1,1,1,1,1,1384,6
"89",2,29,0.495399022186874,-1,3,0,0,1,816,7
"90",2,30,0.486088127825804,-1,1,0,1,-1,928,6
"91",2,31,0.481810030238918,-1,2,0,0,1,969,7
"92",2,32,0.503503179161831,1,3,0,0,1,768,8
"93",2,33,0.589619368125988,1,2,1,1,1,1361,9
"94",2,34,0.53179062757526,1,3,0,0,1,880,10
"95",2,35,0.536754632355474,1,1,1,1,1,585,11
"96",2,36,0.395611852223112,-1,3,0,0,1,841,12
"97",2,37,0.547330941598642,-1,2,0,0,1,624,13
"98",2,38,0.591032450902093,1,1,1,1,1,776,14
"99",2,39,0.67894019209368,1,2,1,0,-1,1190,13
"100",2,40,0.53285745758888,-1,1,1,1,1,787,14
"101",2,41,0.630085958747326,1,3,0,0,1,736,15
"102",2,42,0.634349943483572,-1,1,1,1,1,673,16
"103",2,43,0.51374141900277,1,2,1,1,1,1352,17
"104",2,44,0.434617307025003,1,1,1,1,1,744,18
"105",2,45,0.308843772657373,-1,3,0,0,1,736,19
"106",2,46,0.408411306987096,-1,2,1,0,-1,904,18
"107",2,47,0.313636367529854,-1,3,0,0,1,712,19
"108",2,48,0.279271388713894,-1,2,0,0,1,1634,20
"109",2,49,0.32378182775029,-1,1,1,1,1,744,21
"110",2,50,0.375155160868541,-1,2,1,1,1,1688,22
"111",2,51,0.362875893377535,1,3,0,0,1,896,23
"112",2,52,0.404462604172747,-1,1,0,1,-1,641,22
"113",2,53,0.480750026770914,1,3,1,0,-1,696,21
"114",2,54,0.409551825473087,-1,1,1,1,1,665,22
"115",2,55,0.40786807214869,-1,2,1,0,-1,984,21
"116",2,56,0.355892110451314,1,1,1,1,1,625,22
"117",2,57,0.417537814929163,1,3,0,0,1,840,23
"118",2,58,0.396692072629239,-1,2,0,0,1,1281,24
"119",2,59,0.422009084058004,-1,3,1,0,-1,735,23
"120",2,60,0.463926749249919,1,2,1,1,1,1224,24
"121",3,1,0.575569853233173,1,1,0,1,-1,1760,0
"122",3,2,0.637270266319867,-1,2,1,1,1,1161,1
"123",3,3,0.709174295057805,1,3,0,0,1,877,2
"124",3,4,0.605532476759033,1,2,1,1,1,1045,3
"125",3,5,0.661764298567552,-1,1,1,1,1,718,4
"126",3,6,0.671388441807199,-1,3,1,0,-1,702,3
"127",3,7,0.723100222481839,-1,1,1,1,1,638,4
"128",3,8,0.828584680181739,1,3,0,0,1,1519,5
"129",3,9,0.836460197871124,1,2,0,1,-1,567,4
"130",3,10,0.835692812824399,-1,3,0,0,1,2215,5
"131",3,11,0.711358897735078,1,1,1,1,1,489,6
"132",3,12,0.657902690097236,1,2,1,1,1,651,7
"133",3,13,0.532787433150294,-1,1,0,1,-1,712,6
"134",3,14,0.492214347080063,-1,2,0,1,-1,518,5
"135",3,15,0.510926211350096,-1,3,0,0,1,593,6
"136",3,16,0.583948975323535,1,2,1,1,1,639,7
"137",3,17,0.467300016867365,1,1,0,1,-1,515,6
"138",3,18,0.440486464846995,-1,3,0,0,1,760,7
"139",3,19,0.504207727692537,1,1,1,1,1,901,8
"140",3,20,0.520993380843717,1,3,0,0,1,999,9
"141",3,21,0.459299926104966,-1,3,0,1,-1,1950,8
"142",3,22,0.592885946639406,1,1,1,1,1,1376,9
"143",3,23,0.612988764920165,-1,2,0,1,-1,1255,8
"144",3,24,0.47366546635456,1,1,0,1,-1,1208,7
"145",3,25,0.487956098810619,-1,3,1,0,-1,2348,6
"146",3,26,0.613469306267876,1,2,1,1,1,1205,7
"147",3,27,0.604891062596583,1,3,0,0,1,1244,8
"148",3,28,0.688300728575526,-1,2,0,1,-1,1584,7
"149",3,29,0.627311069227261,1,1,1,1,1,1459,8
"150",3,30,0.706901956168651,1,2,0,1,-1,1325,7
"151",3,31,0.636901755733966,1,3,0,0,1,1139,8
"152",3,32,0.528549586710244,-1,1,1,1,1,1182,9
"153",3,33,0.505924358741702,-1,3,0,0,1,1645,10
"154",3,34,0.443236984002366,-1,1,0,1,-1,1571,9
"155",3,35,0.305501340449007,-1,2,0,1,-1,1194,8
"156",3,36,0.350832023782821,-1,1,1,1,1,1128,9
"157",3,37,0.339890642462136,-1,3,0,0,1,1801,10
"158",3,38,0.245798408008174,-1,2,0,1,-1,388,9
"159",3,39,0.273999176195286,1,3,1,0,-1,1542,8
"160",3,40,0.181726027734434,1,2,0,1,-1,355,7
"161",3,41,0.207986634744239,-1,2,1,1,1,855,8
"162",3,42,0.207218206471848,1,3,0,0,1,1426,9
"163",3,43,0.293098107337686,1,1,1,1,1,471,10
"164",3,44,0.277949830124764,1,3,0,0,1,1188,11
"165",3,45,0.258658416288288,-1,2,0,1,-1,379,10
"166",3,46,0.247900427612077,-1,1,1,1,1,1299,11
"167",3,47,0.356436387037069,-1,2,1,0,-1,1236,10
"168",3,48,0.278173629966396,-1,1,1,1,1,648,11
"169",3,49,0.266466654636233,-1,3,0,1,-1,1754,10
"170",3,50,0.442206930852354,1,1,1,1,1,1086,11
"171",3,51,0.383814393303912,1,2,1,1,1,877,12
"172",3,52,0.457739938560272,-1,3,1,1,1,1446,13
"173",3,53,0.354212431749351,1,2,1,1,1,817,14
"174",3,54,0.211216242963205,-1,3,1,0,-1,1202,13
"175",3,55,0.340855748482556,1,1,1,1,1,1342,14
"176",3,56,0.308592648439221,-1,3,0,0,1,1062,15
"177",3,57,0.334094215649597,1,2,0,1,-1,1850,14
"178",3,58,0.280781878623452,-1,1,1,1,1,1174,15
"179",3,59,0.326678003262191,1,2,1,1,1,1036,16
"180",3,60,0.236569301567331,-1,1,1,1,1,1265,17
"181",4,1,0.449421440370145,-1,3,0,0,1,1762,17
"182",4,2,0.459620385788981,1,1,1,1,1,1151,18
"183",4,3,0.486730268926586,1,2,1,1,1,980,19
"184",4,4,0.65696193845801,-1,1,1,1,1,968,20
"185",4,5,0.732238630988097,1,3,0,0,1,1652,21
"186",4,6,0.764631278722416,-1,2,0,1,-1,1444,20
"187",4,7,0.872166984360185,-1,3,0,0,1,891,21
"188",4,8,0.816173693705117,-1,2,1,1,1,849,22
"189",4,9,0.86864911537548,1,1,1,1,1,1000,23
"190",4,10,0.826936488387867,1,2,1,1,1,815,24
"191",4,11,0.888117245562766,1,3,0,0,1,699,25
"192",4,12,0.885594608565813,1,1,1,1,1,1432,26
"193",4,13,0.851549494674612,1,3,0,0,1,695,27
"194",4,14,0.827864321091856,1,1,1,1,1,888,28
"195",4,15,0.791928538239575,1,2,0,1,-1,667,27
"196",4,16,0.816435648749897,1,1,1,1,1,943,28
"197",4,17,0.696542083215926,1,3,1,0,-1,899,27
"198",4,18,0.669654009851543,-1,2,1,1,1,881,28
"199",4,19,0.617715821515351,1,3,0,0,1,1252,29
"200",4,20,0.655202164456272,1,2,0,1,-1,1090,28
"201",4,21,0.50508655209882,-1,2,1,1,1,1685,29
"202",4,22,0.460853489177169,1,3,0,0,1,1015,30
"203",4,23,0.373279508328325,-1,1,0,1,-1,850,29
"204",4,24,0.341168420511209,-1,3,1,0,-1,1712,28
"205",4,25,0.357985693019068,-1,2,1,1,1,2060,29
"206",4,26,0.320265317724838,1,1,0,1,-1,873,28
"207",4,27,0.204492007048309,-1,2,1,1,1,800,29
"208",4,28,0.154789708667304,-1,1,1,1,1,1510,30
"209",4,29,0.174156689557392,-1,3,0,0,1,654,31
"210",4,30,0.198692107056964,-1,1,0,1,-1,892,30
"211",4,31,0.167771647364247,-1,2,0,1,-1,642,29
"212",4,32,0.19363205091896,-1,3,0,0,1,636,30
"213",4,33,0.13686422053202,-1,2,0,1,-1,2024,29
"214",4,34,0.126509085227221,-1,3,0,0,1,716,30
"215",4,35,0.21512833758529,-1,1,1,1,1,1268,31
"216",4,36,0.155463203825094,-1,3,0,0,1,1588,32
"217",4,37,0.191312332572196,1,2,1,1,1,1303,33
"218",4,38,0.292968260261933,1,1,1,1,1,2199,34
"219",4,39,0.29377132055499,-1,2,1,1,1,1549,35
"220",4,40,0.310326994281084,1,1,1,1,1,892,36
"221",4,41,0.390033448404002,-1,1,1,1,1,692,37
"222",4,42,0.399082121744439,1,2,0,1,-1,1087,36
"223",4,43,0.451337679431389,1,3,1,0,-1,630,35
"224",4,44,0.5348474153097,1,2,1,0,-1,1037,34
"225",4,45,0.510483058170093,1,1,1,1,1,675,35
"226",4,46,0.5019459130493,-1,3,0,0,1,743,36
"227",4,47,0.557382229152428,-1,1,1,1,1,1937,37
"228",4,48,0.624505064430977,-1,3,1,0,-1,1221,36
"229",4,49,0.607065100501856,-1,2,0,1,-1,725,35
"230",4,50,0.558408551355377,-1,3,0,1,-1,992,34
"231",4,51,0.520912451506581,1,1,1,1,1,910,35
"232",4,52,0.565393978231874,-1,2,0,1,-1,746,34
"233",4,53,0.576771622356362,1,1,0,1,-1,755,33
"234",4,54,0.567357508434049,1,2,0,1,-1,1723,32
"235",4,55,0.608951760203813,1,3,1,0,-1,805,31
"236",4,56,0.611768269691681,-1,2,0,0,1,800,32
"237",4,57,0.664655943797346,-1,1,0,0,1,756,33
"238",4,58,0.714316962373902,1,3,0,1,-1,698,32
"239",4,59,0.772686302898067,-1,1,1,1,1,631,33
"240",4,60,0.641705980047091,1,3,0,0,1,1631,34
"241",5,1,0.509454908757563,NA,1,NA,NA,NA,NA,18
"242",5,2,0.547867718837749,-1,2,1,1,1,1093,19
"243",5,3,0.493123313197205,-1,3,1,0,-1,1218,18
"244",5,4,0.50883670546018,-1,2,1,1,1,1044,19
"245",5,5,0.564543435006933,1,1,1,1,1,940,20
"246",5,6,0.620487594245096,-1,3,1,0,-1,953,19
"247",5,7,0.691546239631308,-1,1,1,1,1,817,20
"248",5,8,0.755032906234217,1,3,0,0,1,950,21
"249",5,9,0.819106112835499,1,2,1,1,1,1006,22
"250",5,10,0.813200728549234,-1,3,0,0,1,964,23
"251",5,11,0.815379791300903,1,1,1,1,1,753,24
"252",5,12,0.827953339799034,1,2,0,1,-1,1178,23
"253",5,13,0.78707975452444,1,1,0,1,-1,906,22
"254",5,14,0.753628248469196,1,2,0,0,1,1553,23
"255",5,15,0.715564960467667,1,3,0,0,1,962,24
"256",5,16,0.619979261837371,1,2,0,0,1,1040,25
"257",5,17,0.419555512857273,-1,1,1,1,1,831,26
"258",5,18,0.338665394461701,-1,3,0,0,1,1495,27
"259",5,19,0.182023431296839,1,1,0,1,-1,688,26
"260",5,20,0.117565960962861,-1,3,1,0,-1,903,25
"261",5,21,0.100779006322815,-1,3,0,1,-1,1051,24
"262",5,22,0.16839537876391,-1,1,1,1,1,798,25
"263",5,23,0.159483839721371,-1,2,0,1,-1,1599,24
"264",5,24,0.17266347898935,1,1,1,1,1,931,25
"265",5,25,0.156714337601842,-1,3,0,0,1,816,26
"266",5,26,0.192696434541313,-1,2,0,1,-1,834,25
"267",5,27,0.198347073362022,-1,3,0,0,1,710,26
"268",5,28,0.146070877959095,-1,2,1,0,-1,1201,25
"269",5,29,0.232202778705492,-1,1,0,1,-1,757,24
"270",5,30,0.357181341988172,-1,2,1,0,-1,945,23
"271",5,31,0.438840772207223,1,3,1,0,-1,953,22
"272",5,32,0.439730865131849,-1,1,0,1,-1,553,21
"273",5,33,0.479806759065532,-1,3,0,0,1,1311,22
"274",5,34,0.602118128741687,-1,1,0,1,-1,1531,21
"275",5,35,0.540603396851247,-1,2,0,1,-1,1558,20
"276",5,36,0.443392798470035,1,1,1,1,1,965,21
"277",5,37,0.487610223117984,1,3,1,0,-1,924,20
"278",5,38,0.492896176728303,-1,2,0,1,-1,1036,19
"279",5,39,0.528613941564272,1,3,0,0,1,1308,20
"280",5,40,0.544887129690716,-1,2,1,0,-1,1376,19
"281",5,41,0.595708807422644,-1,2,1,1,1,1117,20
"282",5,42,0.617948772068994,1,3,0,1,-1,1523,19
"283",5,43,0.628737559866326,1,1,1,1,1,815,20
"284",5,44,0.591678014675681,-1,3,0,0,1,694,21
"285",5,45,0.53278106655077,-1,2,0,0,1,1207,22
"286",5,46,0.655851848951293,1,1,1,1,1,706,23
"287",5,47,0.725252193861799,-1,2,1,0,-1,851,22
"288",5,48,0.707239488561595,-1,1,1,1,1,1387,23
"289",5,49,0.515237480418208,1,3,0,0,1,1018,24
"290",5,50,0.631812263516212,1,1,1,1,1,800,25
"291",5,51,0.588271379906875,-1,2,0,0,1,974,26
"292",5,52,0.501552411701285,-1,3,0,0,1,716,27
"293",5,53,0.410368670647093,1,2,1,0,-1,992,26
"294",5,54,0.487429471804098,-1,3,0,1,-1,579,25
"295",5,55,0.458818098641139,1,1,1,1,1,795,26
"296",5,56,0.555076068829438,1,3,0,0,1,773,27
"297",5,57,0.553047499570329,1,2,1,0,-1,1193,26
"298",5,58,0.554079004657697,-1,1,1,1,1,780,27
"299",5,59,0.567991050528197,-1,2,0,1,-1,1093,26
"300",5,60,0.504880327132237,1,1,1,1,1,1159,27
"301",6,1,0.514891624823213,-1,3,0,1,-1,2240,-1
"302",6,2,0.433126712066106,-1,1,1,1,1,1600,0
"303",6,3,0.498686974848232,-1,2,1,1,1,2216,1
"304",6,4,0.496204735629317,-1,1,1,1,1,1553,2
"305",6,5,0.393227003545569,-1,3,0,0,1,1846,3
"306",6,6,0.274986555012264,-1,2,1,1,1,1260,4
"307",6,7,0.281554812956943,-1,3,0,0,1,1700,5
"308",6,8,0.223133713477383,1,2,0,1,-1,1153,4
"309",6,9,0.236828882782368,1,1,0,1,-1,1108,3
"310",6,10,0.248406118348972,-1,2,0,1,-1,1308,2
"311",6,11,0.228065374050014,-1,3,0,0,1,1587,3
"312",6,12,0.204818413943499,-1,1,1,1,1,1126,4
"313",6,13,0.291384156764732,1,3,1,0,-1,1273,3
"314",6,14,0.289631570594186,-1,1,0,1,-1,1815,2
"315",6,15,0.217611543744683,-1,2,0,1,-1,1222,1
"316",6,16,0.136266181528608,-1,1,1,1,1,1134,2
"317",6,17,0.164574909873073,-1,3,1,0,-1,1109,1
"318",6,18,0.203736091097084,-1,2,1,0,-1,1991,0
"319",6,19,0.196895605954112,-1,3,0,0,1,1519,1
"320",6,20,0.216447544569378,-1,2,1,1,1,1057,2
"321",6,21,0.219548892582025,-1,1,1,1,1,1469,3
"322",6,22,0.132030835769068,1,2,1,1,1,926,4
"323",6,23,0.244461947350258,-1,3,1,0,-1,1818,3
"324",6,24,0.341082047827723,-1,2,0,1,-1,875,2
"325",6,25,0.351232608145739,1,1,0,1,-1,942,1
"326",6,26,0.521697891802842,1,3,0,1,-1,2446,0
"327",6,27,0.465871197014325,-1,1,1,1,1,1352,1
"328",6,28,0.435157909891112,-1,3,0,0,1,1229,2
"329",6,29,0.40346911649647,-1,2,1,0,-1,1159,1
"330",6,30,0.528826726504737,1,3,0,0,1,1075,2
"331",6,31,0.430955129966057,1,1,1,1,1,1346,3
"332",6,32,0.418278459587014,1,2,0,1,-1,865,2
"333",6,33,0.553575245190033,1,1,1,1,1,1218,3
"334",6,34,0.484451654686385,1,2,1,1,1,1041,4
"335",6,35,0.616206425745069,-1,3,0,0,1,949,5
"336",6,36,0.798844381142661,1,2,1,0,-1,1380,4
"337",6,37,0.823479921202887,1,1,1,1,1,934,5
"338",6,38,0.744057124356882,1,3,0,0,1,1304,6
"339",6,39,0.789451801939612,1,1,1,1,1,1561,7
"340",6,40,0.803402854712766,1,3,1,0,-1,1807,6
"341",6,41,0.81772192996934,-1,2,0,1,-1,995,5
"342",6,42,0.853669681882323,1,3,0,0,1,1640,6
"343",6,43,0.845264973746831,1,1,0,1,-1,1011,5
"344",6,44,0.819937300304285,1,3,1,0,-1,1582,4
"345",6,45,0.76523840347233,1,2,0,0,1,1412,5
"346",6,46,0.748953655479838,1,1,1,1,1,1131,6
"347",6,47,0.762898697942221,1,2,1,1,1,994,7
"348",6,48,0.736207667730207,1,1,1,1,1,1193,8
"349",6,49,0.662263664888053,1,3,0,0,1,1151,9
"350",6,50,0.589137905788874,-1,1,1,1,1,1115,10
"351",6,51,0.59761215582492,1,2,0,1,-1,944,9
"352",6,52,0.536562309439995,-1,3,0,0,1,1014,10
"353",6,53,0.552082299451582,-1,2,0,1,-1,1013,9
"354",6,54,0.540933078425494,1,3,0,0,1,1127,10
"355",6,55,0.47345796082989,-1,1,0,1,-1,870,9
"356",6,56,0.433331637903384,-1,3,0,0,1,1146,10
"357",6,57,0.41820538833121,-1,2,1,1,1,1082,11
"358",6,58,0.576341781695517,1,1,1,1,1,766,12
"359",6,59,0.60251905357237,-1,2,0,1,-1,1053,11
"360",6,60,0.55374178843813,1,1,1,1,1,798,12
"361",7,1,0.401796890649778,-1,1,1,1,1,1061,-13
"362",7,2,0.485015865383032,1,2,0,1,-1,1142,-14
"363",7,3,0.496499474481363,-1,3,0,0,1,736,-13
"364",7,4,0.382218899178584,1,2,1,1,1,631,-12
"365",7,5,0.249810245168778,-1,1,0,1,-1,727,-13
"366",7,6,0.305052758793329,1,3,0,0,1,813,-12
"367",7,7,0.326379466356974,-1,1,1,1,1,990,-11
"368",7,8,0.387198688852887,-1,3,0,0,1,953,-10
"369",7,9,0.393189636782537,-1,2,0,0,1,930,-9
"370",7,10,0.323493475001288,1,3,0,0,1,897,-8
"371",7,11,0.410946148000642,-1,1,1,1,1,734,-7
"372",7,12,0.339482379591189,-1,2,0,0,1,766,-6
"373",7,13,0.389593618999905,-1,1,1,1,1,759,-5
"374",7,14,0.352329300227028,-1,2,1,0,-1,783,-6
"375",7,15,0.291665013493208,1,3,0,0,1,799,-5
"376",7,16,0.332012892263414,-1,2,0,1,-1,631,-6
"377",7,17,0.312481420784974,1,1,0,1,-1,697,-7
"378",7,18,0.387590205439741,-1,3,0,0,1,784,-6
"379",7,19,0.456264314883326,1,1,1,1,1,682,-5
"380",7,20,0.507222990956476,-1,3,0,0,1,776,-4
"381",7,21,0.462598766009521,-1,2,0,1,-1,795,-5
"382",7,22,0.517840702530284,-1,3,0,0,1,732,-4
"383",7,23,0.462887849765114,1,1,1,1,1,614,-3
"384",7,24,0.618516441502022,1,3,0,0,1,727,-2
"385",7,25,0.709973169151231,1,2,1,0,-1,714,-3
"386",7,26,0.76646298358416,1,1,1,1,1,572,-2
"387",7,27,0.774770103214582,1,2,1,0,-1,871,-3
"388",7,28,0.751636572746663,1,1,1,1,1,789,-2
"389",7,29,0.807559299067583,1,3,0,0,1,501,-1
"390",7,30,0.861079987202015,1,1,0,1,-1,685,-2
"391",7,31,0.848873840952576,1,2,0,0,1,863,-1
"392",7,32,0.757705873627597,-1,3,0,0,1,690,0
"393",7,33,0.780536746880355,-1,2,1,1,1,873,1
"394",7,34,0.834214331141978,1,3,0,0,1,673,2
"395",7,35,0.860374089742155,1,1,0,1,-1,637,1
"396",7,36,0.671306765283979,1,3,1,0,-1,710,0
"397",7,37,0.689581010688208,1,2,1,0,-1,722,-1
"398",7,38,0.689361534137338,1,1,1,1,1,625,0
"399",7,39,0.682605432857828,1,2,0,1,-1,739,-1
"400",7,40,0.634099925415138,-1,1,0,1,-1,647,-2
"401",7,41,0.73181389866153,1,3,0,0,1,637,-1
"402",7,42,0.706342709599828,-1,1,1,1,1,666,0
"403",7,43,0.708626585402354,-1,2,1,1,1,719,1
"404",7,44,0.542859431246735,1,1,1,1,1,712,2
"405",7,45,0.431847217855884,1,3,1,0,-1,679,1
"406",7,46,0.508966495834615,1,2,1,0,-1,735,0
"407",7,47,0.420167253203709,1,3,0,0,1,830,1
"408",7,48,0.484593471690165,1,2,1,1,1,865,2
"409",7,49,0.438954777547198,1,1,1,1,1,601,3
"410",7,50,0.36246449243073,1,2,0,1,-1,718,2
"411",7,51,0.354096116549193,1,3,1,0,-1,636,1
"412",7,52,0.23079669019471,1,1,1,1,1,641,2
"413",7,53,0.244747393675426,1,3,0,0,1,577,3
"414",7,54,0.219232526228296,-1,1,1,1,1,678,4
"415",7,55,0.33079188279404,1,2,0,0,1,746,5
"416",7,56,0.442755463861273,-1,1,1,1,1,640,6
"417",7,57,0.512168649098228,1,3,1,0,-1,658,5
"418",7,58,0.612598476204821,1,2,0,1,-1,706,4
"419",7,59,0.746808089285795,-1,3,1,0,-1,679,3
"420",7,60,0.82947452444896,1,2,1,0,-1,774,2
"421",8,1,0.482036308711395,1,2,0,1,-1,2130,3
"422",8,2,0.532390720514915,1,3,0,0,1,1386,4
"423",8,3,0.511580429101555,1,1,1,1,1,1361,5
"424",8,4,0.528184153714182,-1,3,0,0,1,2072,6
"425",8,5,0.512577163134757,-1,2,1,0,-1,2411,5
"426",8,6,0.446249456203441,1,1,1,1,1,1515,6
"427",8,7,0.355410684318634,-1,2,1,1,1,2801,7
"428",8,8,0.37748681960977,-1,1,1,1,1,1453,8
"429",8,9,0.400234192031372,-1,3,0,0,1,1841,9
"430",8,10,0.342650771089127,1,1,1,1,1,1465,10
"431",8,11,0.246652948868296,-1,2,1,0,-1,1545,9
"432",8,12,0.243036051602381,1,3,0,0,1,1969,10
"433",8,13,0.291610777374746,1,2,1,1,1,1303,11
"434",8,14,0.199278145275077,-1,3,0,0,1,952,12
"435",8,15,0.178900857157576,-1,1,0,1,-1,2119,11
"436",8,16,0.26647615240181,-1,3,1,0,-1,1904,10
"437",8,17,0.172345763075138,-1,2,1,0,-1,1270,9
"438",8,18,0.14432326931485,-1,1,1,1,1,1171,10
"439",8,19,0.139002590663619,-1,2,0,0,1,2369,11
"440",8,20,0.158329920731875,-1,1,0,1,-1,1678,10
"441",8,21,0.175600071669027,-1,1,1,1,1,1876,11
"442",8,22,0.121960270127617,-1,2,0,0,1,1438,12
"443",8,23,0.336843075363874,-1,3,0,0,1,1572,13
"444",8,24,0.491441517639965,-1,2,1,0,-1,1970,12
"445",8,25,0.46856257650582,1,1,1,1,1,951,13
"446",8,26,0.528247957655698,-1,3,0,0,1,1656,14
"447",8,27,0.603276744358066,1,1,1,0,-1,1813,13
"448",8,28,0.632021346048593,1,3,1,0,-1,1969,12
"449",8,29,0.661720637060077,1,2,0,1,-1,1001,11
"450",8,30,0.577510945163203,1,3,0,1,-1,1685,10
"451",8,31,0.66884590828505,1,1,1,1,1,1207,11
"452",8,32,0.59992024380635,1,2,0,0,1,1454,12
"453",8,33,0.709743399284045,1,1,1,1,1,2200,13
"454",8,34,0.838518387981949,1,2,1,0,-1,1694,12
"455",8,35,0.665687687060581,1,3,1,1,1,1530,13
"456",8,36,0.623218623594553,1,2,1,0,-1,1485,12
"457",8,37,0.499762407742719,-1,1,1,1,1,907,13
"458",8,38,0.578239767334299,-1,3,0,0,1,1833,14
"459",8,39,0.631522514356649,1,1,1,0,-1,1811,13
"460",8,40,0.622299684944204,1,3,0,0,1,1100,14
"461",8,41,0.509852257550236,1,3,1,1,1,2237,15
"462",8,42,0.55259665973185,1,1,0,1,-1,1095,14
"463",8,43,0.512492727209223,-1,2,0,0,1,1691,15
"464",8,44,0.592878974211886,1,1,0,1,-1,1405,14
"465",8,45,0.684166797793306,1,3,0,0,1,1755,15
"466",8,46,0.751528747560803,1,2,1,0,-1,1970,14
"467",8,47,0.666609871391503,1,3,0,1,-1,1485,13
"468",8,48,0.571099153744844,NA,2,NA,NA,NA,NA,13
"469",8,49,0.639758322635747,-1,1,0,1,-1,2814,12
"470",8,50,0.643832269580591,1,2,0,0,1,677,13
"471",8,51,0.596593627993171,-1,3,0,0,1,1999,14
"472",8,52,0.513677243993023,1,1,1,1,1,2295,15
"473",8,53,0.445012167331081,-1,3,0,1,-1,1611,14
"474",8,54,0.415797117400729,1,1,1,0,-1,2511,13
"475",8,55,0.421824496246961,-1,2,0,0,1,1640,14
"476",8,56,0.472451896162148,-1,1,1,1,1,1598,15
"477",8,57,0.436463088309325,1,3,0,0,1,3006,16
"478",8,58,0.389796717283085,-1,2,0,0,1,1377,17
"479",8,59,0.398704292758031,1,3,1,1,1,4064,18
"480",8,60,0.27743003793053,-1,2,0,0,1,3609,19
"481",9,1,0.51566681494005,1,3,1,0,-1,3149,3
"482",9,2,0.522798375324389,1,1,0,1,-1,1892,2
"483",9,3,0.619540028201175,1,2,1,1,1,935,3
"484",9,4,0.603511260755681,1,1,1,1,1,1010,4
"485",9,5,0.545009651442652,-1,3,0,0,1,1103,5
"486",9,6,0.440399356470419,-1,2,0,1,-1,783,4
"487",9,7,0.430283390938869,-1,3,0,0,1,797,5
"488",9,8,0.4869678087156,-1,2,1,1,1,771,6
"489",9,9,0.40523846635041,1,1,0,1,-1,883,5
"490",9,10,0.380268660078188,1,2,1,1,1,719,6
"491",9,11,0.391060309546765,-1,3,0,0,1,712,7
"492",9,12,0.557652651945482,1,1,1,1,1,814,8
"493",9,13,0.622140166517966,1,3,0,0,1,1285,9
"494",9,14,0.492462980590701,-1,1,1,1,1,702,10
"495",9,15,0.493387483718829,-1,2,1,1,1,784,11
"496",9,16,0.588712428102077,-1,1,0,1,-1,871,10
"497",9,17,0.590826524640913,1,3,1,0,-1,673,9
"498",9,18,0.560975631338941,1,2,1,1,1,529,10
"499",9,19,0.653565641436484,1,3,0,1,-1,1114,9
"500",9,20,0.649883158414155,1,2,0,1,-1,824,8
"501",9,21,0.590800697649167,1,2,0,1,-1,643,7
"502",9,22,0.641299756055955,-1,3,0,1,-1,384,6
"503",9,23,0.64919035715128,-1,1,0,1,-1,636,5
"504",9,24,0.651032813903597,-1,3,0,0,1,982,6
"505",9,25,0.747789625211861,1,2,1,1,1,429,7
"506",9,26,0.852305911699121,1,1,1,1,1,548,8
"507",9,27,0.892169738279351,1,2,0,1,-1,692,7
"508",9,28,0.86314653862472,1,1,1,1,1,904,8
"509",9,29,0.8927028272201,1,3,0,0,1,556,9
"510",9,30,0.883304547501055,1,1,0,1,-1,719,8
"511",9,31,0.89653115719242,1,2,1,1,1,798,9
"512",9,32,0.616093909929302,1,3,0,0,1,646,10
"513",9,33,0.579425398745009,-1,2,1,1,1,767,11
"514",9,34,0.435781242534612,-1,3,1,0,-1,729,10
"515",9,35,0.4503937936507,-1,1,1,1,1,587,11
"516",9,36,0.449812602160443,1,3,0,0,1,736,12
"517",9,37,0.554551697151997,-1,2,0,1,-1,697,11
"518",9,38,0.524881686708602,-1,1,1,1,1,1001,12
"519",9,39,0.533797595136221,1,2,0,1,-1,813,11
"520",9,40,0.432382320492944,-1,1,1,1,1,809,12
"521",9,41,0.515422277889207,-1,1,1,1,1,749,13
"522",9,42,0.482068756367739,-1,2,0,1,-1,742,12
"523",9,43,0.401959547556065,-1,3,0,0,1,712,13
"524",9,44,0.233218772054673,-1,2,1,1,1,962,14
"525",9,45,0.148018146283011,-1,1,1,1,1,763,15
"526",9,46,0.184696809781557,1,3,0,0,1,1951,16
"527",9,47,0.201568962710531,-1,1,1,1,1,697,17
"528",9,48,0.142892210970261,-1,3,0,0,1,650,18
"529",9,49,0.181277368636668,-1,2,1,1,1,709,19
"530",9,50,0.154520501132574,1,3,1,0,-1,704,18
"531",9,51,0.130595470485316,-1,1,1,1,1,630,19
"532",9,52,0.101307956858514,-1,2,0,1,-1,622,18
"533",9,53,0.10341865775656,-1,1,1,1,1,695,19
"534",9,54,0.155471597177236,1,2,0,1,-1,718,18
"535",9,55,0.189924099181809,1,3,0,0,1,877,19
"536",9,56,0.156666611771097,-1,2,0,1,-1,749,18
"537",9,57,0.28323863601843,-1,1,1,1,1,845,19
"538",9,58,0.229420629268478,-1,3,0,0,1,842,20
"539",9,59,0.112231161338951,-1,1,1,1,1,1264,21
"540",9,60,0.230258302115107,-1,3,1,0,-1,794,20
"541",11,1,0.44946931633167,-1,3,1,1,1,2137,7
"542",11,2,0.366393950114131,1,1,1,1,1,1440,8
"543",11,3,0.409154685188995,-1,2,1,1,1,842,9
"544",11,4,0.561359767300243,1,1,0,1,-1,776,8
"545",11,5,0.601438654563343,1,3,1,0,-1,1010,7
"546",11,6,0.510883279619831,-1,2,0,1,-1,781,6
"547",11,7,0.516877691199614,-1,3,0,1,-1,316,5
"548",11,8,0.502431325803873,-1,2,1,1,1,285,6
"549",11,9,0.441582474193808,-1,1,0,1,-1,824,5
"550",11,10,0.357544160872807,-1,2,0,1,-1,255,4
"551",11,11,0.287752555837674,-1,3,0,1,-1,272,3
"552",11,12,0.356916823122678,1,1,1,1,1,648,4
"553",11,13,0.263939318295159,1,3,0,0,1,616,5
"554",11,14,0.265305260274704,-1,1,1,1,1,806,6
"555",11,15,0.188001864858246,-1,2,0,1,-1,734,5
"556",11,16,0.161160567724643,-1,1,1,1,1,1297,6
"557",11,17,0.113709865583455,-1,3,1,0,-1,698,5
"558",11,18,0.422820830613899,-1,2,1,1,1,512,6
"559",11,19,0.338843605209141,-1,3,0,0,1,773,7
"560",11,20,0.303384328520239,1,2,0,1,-1,475,6
"561",11,21,0.233913643442028,-1,2,1,1,1,716,7
"562",11,22,0.228820630506367,-1,3,0,0,1,694,8
"563",11,23,0.175341554875623,-1,1,1,1,1,1801,9
"564",11,24,0.299245863903414,1,3,0,0,1,2513,10
"565",11,25,0.248472105773423,-1,2,1,1,1,1462,11
"566",11,26,0.218770824504526,-1,1,1,1,1,602,12
"567",11,27,0.25170425268771,1,2,1,1,1,866,13
"568",11,28,0.382371046523836,-1,1,1,1,1,628,14
"569",11,29,0.522836558320431,-1,3,0,0,1,459,15
"570",11,30,0.436410006577453,1,1,1,1,1,1043,16
"571",11,31,0.480795684403294,1,2,0,1,-1,638,15
"572",11,32,0.4416464438479,1,3,0,0,1,603,16
"573",11,33,0.477679260092074,1,2,1,1,1,1030,17
"574",11,34,0.486200848744341,-1,3,1,0,-1,714,16
"575",11,35,0.600133937877909,1,1,0,1,-1,618,15
"576",11,36,0.519640095711768,1,3,0,0,1,623,16
"577",11,37,0.534463829799681,1,2,1,1,1,589,17
"578",11,38,0.599435103197089,-1,1,1,1,1,1656,18
"579",11,39,0.660745835941503,1,2,0,1,-1,4871,17
"580",11,40,0.620552629569666,1,1,0,1,-1,589,16
"581",11,41,0.744312842863142,-1,1,1,1,1,564,17
"582",11,42,0.731285687936774,1,2,1,0,-1,1337,16
"583",11,43,0.725717518905911,1,3,1,0,-1,820,15
"584",11,44,0.698411389611349,1,2,0,1,-1,529,14
"585",11,45,0.701058530676065,1,1,1,1,1,703,15
"586",11,46,0.586367840906747,1,3,0,0,1,842,16
"587",11,47,0.577530886919795,1,1,1,1,1,671,17
"588",11,48,0.589252029568231,-1,3,0,0,1,660,18
"589",11,49,0.558194672819771,-1,2,0,1,-1,695,17
"590",11,50,0.645118264196454,-1,3,0,1,-1,1128,16
"591",11,51,0.648938547010279,1,1,1,1,1,616,17
"592",11,52,0.740368998781809,1,2,1,1,1,678,18
"593",11,53,0.789275491228527,-1,1,1,1,1,756,19
"594",11,54,0.815204076076099,1,2,0,1,-1,632,18
"595",11,55,0.746053352071026,1,3,0,0,1,663,19
"596",11,56,0.612499214861255,1,2,0,0,1,1320,20
"597",11,57,0.598178759194404,1,1,1,1,1,517,21
"598",11,58,0.653226375080728,-1,3,0,0,1,657,22
"599",11,59,0.64072151508318,-1,1,0,1,-1,678,21
"600",11,60,0.657204261996001,1,3,0,0,1,560,22
"601",12,1,0.530195008451119,-1,2,1,1,1,984,-2
"602",12,2,0.561599966248504,-1,3,0,0,1,746,-1
"603",12,3,0.441014420055855,-1,1,0,1,-1,1312,-2
"604",12,4,0.474899166533419,1,3,0,0,1,679,-1
"605",12,5,0.517655581665205,1,2,0,1,-1,713,-2
"606",12,6,0.516322739901468,1,1,1,1,1,885,-1
"607",12,7,0.554758666507257,1,2,0,1,-1,722,-2
"608",12,8,0.696172113344857,1,1,1,1,1,896,-1
"609",12,9,0.550045792914887,1,3,1,0,-1,678,-2
"610",12,10,0.399183010181208,-1,1,1,1,1,1022,-1
"611",12,11,0.402943555505578,-1,2,0,1,-1,897,-2
"612",12,12,0.247868749602492,-1,3,0,0,1,630,-1
"613",12,13,0.225323589842301,-1,2,1,0,-1,700,-2
"614",12,14,0.246074244400241,-1,3,0,0,1,652,-1
"615",12,15,0.218948834908323,-1,1,1,1,1,807,0
"616",12,16,0.135008952244802,-1,3,0,0,1,1278,1
"617",12,17,0.119298360350066,-1,2,0,0,1,781,2
"618",12,18,0.162865757897784,-1,1,0,1,-1,670,1
"619",12,19,0.230662005692114,-1,2,0,0,1,885,2
"620",12,20,0.17672619980317,-1,1,1,1,1,553,3
"621",12,21,0.267436805261577,-1,1,1,1,1,675,4
"622",12,22,0.301921795258653,-1,2,1,0,-1,1609,3
"623",12,23,0.438566404075651,-1,3,1,0,-1,637,2
"624",12,24,0.44514517484964,-1,2,0,0,1,653,3
"625",12,25,0.50560815737783,-1,1,1,1,1,758,4
"626",12,26,0.424527011252106,1,3,1,0,-1,612,3
"627",12,27,0.597354444930255,1,1,0,1,-1,719,2
"628",12,28,0.4713437858616,-1,3,0,0,1,583,3
"629",12,29,0.335585240110681,1,2,1,0,-1,861,2
"630",12,30,0.362177162167838,-1,3,0,0,1,731,3
"631",12,31,0.250240941239277,-1,1,1,1,1,542,4
"632",12,32,0.271050432643087,-1,2,1,1,1,1454,5
"633",12,33,0.317765858112741,-1,1,1,1,1,778,6
"634",12,34,0.29633005396377,1,2,0,1,-1,1368,5
"635",12,35,0.23948327560759,1,3,0,0,1,654,6
"636",12,36,0.232590245683209,1,2,1,0,-1,1224,5
"637",12,37,0.309409027062,1,1,0,1,-1,581,4
"638",12,38,0.598712362851145,1,3,1,0,-1,673,3
"639",12,39,0.66826035281711,1,1,1,1,1,824,4
"640",12,40,0.720088604345676,1,3,0,0,1,615,5
"641",12,41,0.708380271628258,-1,3,0,0,1,579,6
"642",12,42,0.781166599653046,1,1,0,1,-1,2152,5
"643",12,43,0.793089634362619,1,2,1,1,1,943,6
"644",12,44,0.777117952672129,-1,1,1,1,1,638,7
"645",12,45,0.835697092447498,1,3,1,0,-1,516,6
"646",12,46,0.862679884171744,1,2,0,0,1,1137,7
"647",12,47,0.81185009646925,1,3,0,0,1,714,8
"648",12,48,0.821371355656556,1,2,0,1,-1,1903,7
"649",12,49,0.822003467836701,-1,1,1,1,1,811,8
"650",12,50,0.882649520608498,1,2,0,0,1,1194,9
"651",12,51,0.853350391972387,1,3,0,0,1,739,10
"652",12,52,0.873802372407087,1,1,1,1,1,718,11
"653",12,53,0.775072218881393,1,3,0,0,1,704,12
"654",12,54,0.767065307796325,-1,1,1,1,1,673,13
"655",12,55,0.72709041375229,1,2,1,1,1,1042,14
"656",12,56,0.737376833492035,1,1,1,1,1,900,15
"657",12,57,0.693963585048658,1,3,0,0,1,580,16
"658",12,58,0.749457888614884,-1,2,1,1,1,1019,17
"659",12,59,0.624868739814771,-1,3,0,0,1,445,18
"660",12,60,0.610219015820799,1,2,1,1,1,1519,19
"661",13,1,0.456720291590318,1,1,0,1,-1,3593,-4
"662",13,2,0.350187985417299,-1,2,0,1,-1,2661,-5
"663",13,3,0.2902138812199,-1,3,1,0,-1,2824,-6
"664",13,4,0.265715778809033,-1,2,1,1,1,2917,-5
"665",13,5,0.38403584912961,-1,1,0,1,-1,920,-6
"666",13,6,0.418558855584146,-1,3,0,1,-1,695,-7
"667",13,7,0.528066497872531,-1,1,1,1,1,792,-6
"668",13,8,0.471442735338813,1,3,0,0,1,4297,-5
"669",13,9,0.514537672929614,-1,2,0,1,-1,2351,-6
"670",13,10,0.487690230293909,1,3,1,0,-1,1967,-7
"671",13,11,0.494071967353615,-1,1,1,1,1,1617,-6
"672",13,12,0.623623608129305,1,2,0,1,-1,2239,-7
"673",13,13,0.647792055874978,-1,1,0,1,-1,1055,-8
"674",13,14,0.721786544982979,1,2,1,0,-1,3528,-9
"675",13,15,0.882817617273062,1,3,1,0,-1,1960,-10
"676",13,16,0.745385794968093,1,2,1,0,-1,912,-11
"677",13,17,0.809799325352332,1,1,1,1,1,1983,-10
"678",13,18,0.820469338342212,1,3,1,1,1,664,-9
"679",13,19,0.837938895383654,1,1,1,1,1,640,-8
"680",13,20,0.844851427152456,1,3,0,1,-1,631,-9
"681",13,21,0.869106387237686,1,2,1,1,1,560,-8
"682",13,22,0.840030413906735,1,3,0,1,-1,566,-9
"683",13,23,0.799789230526897,1,1,1,1,1,640,-8
"684",13,24,0.696500729903338,1,3,0,0,1,2167,-7
"685",13,25,0.565371167520969,-1,2,0,1,-1,1769,-8
"686",13,26,0.581312007247514,1,1,0,1,-1,967,-9
"687",13,27,0.520785878624769,1,2,1,1,1,570,-8
"688",13,28,0.705569940746724,1,1,1,0,-1,2109,-9
"689",13,29,0.785842103877309,1,3,0,0,1,1135,-8
"690",13,30,0.820246984596321,1,1,1,1,1,3313,-7
"691",13,31,0.730785645806163,-1,2,1,0,-1,2134,-8
"692",13,32,0.716464691541335,-1,3,0,0,1,834,-7
"693",13,33,0.827936095803536,-1,2,1,1,1,1734,-6
"694",13,34,0.830262051254727,1,3,0,0,1,1703,-5
"695",13,35,0.865052925906524,1,1,1,1,1,1602,-4
"696",13,36,0.715641993588335,1,3,0,0,1,1639,-3
"697",13,37,0.593985035985123,-1,2,0,0,1,1015,-2
"698",13,38,0.414925099806095,1,1,1,1,1,1520,-1
"699",13,39,0.383137452057366,-1,2,0,1,-1,1025,-2
"700",13,40,0.292723214646574,-1,1,1,1,1,829,-1
"701",13,41,0.272711311145528,-1,3,0,0,1,1881,0
"702",13,42,0.248321206074444,-1,1,1,1,1,1462,1
"703",13,43,0.23196566415012,-1,2,0,1,-1,793,0
"704",13,44,0.279908498145185,-1,1,1,1,1,943,1
"705",13,45,0.261639098527791,1,3,0,1,-1,1399,0
"706",13,46,0.142923029102559,-1,2,0,1,-1,912,-1
"707",13,47,0.112263537073627,-1,3,0,0,1,1519,0
"708",13,48,0.127778265354468,-1,2,1,0,-1,655,-1
"709",13,49,0.166416527011127,-1,1,1,0,-1,1015,-2
"710",13,50,0.253182999346448,1,2,1,0,-1,713,-3
"711",13,51,0.299681988738514,-1,3,0,0,1,766,-2
"712",13,52,0.266048708761416,1,1,1,1,1,1417,-1
"713",13,53,0.407998728138391,-1,3,1,1,1,928,0
"714",13,54,0.415214593126061,-1,1,1,1,1,679,1
"715",13,55,0.404045018730009,1,2,0,1,-1,1080,0
"716",13,56,0.466715790496147,-1,1,0,1,-1,751,-1
"717",13,57,0.440236297668128,-1,3,0,1,-1,655,-2
"718",13,58,0.558821694049817,-1,2,1,1,1,831,-1
"719",13,59,0.68492756554526,1,3,0,1,-1,601,-2
"720",13,60,0.792844384538657,-1,2,0,1,-1,720,-3
"721",14,1,0.522041333885863,1,2,1,0,-1,2023,-5
"722",14,2,0.616337716169289,-1,3,1,0,-1,1086,-6
"723",14,3,0.559394553983524,-1,1,1,1,1,943,-5
"724",14,4,0.422750354280144,-1,3,1,0,-1,969,-6
"725",14,5,0.529590886873859,1,2,0,1,-1,2188,-7
"726",14,6,0.592745818588831,1,1,1,1,1,786,-6
"727",14,7,0.611877628219784,1,2,0,1,-1,1580,-7
"728",14,8,0.673386879797347,-1,1,0,1,-1,921,-8
"729",14,9,0.687837287146861,-1,3,0,0,1,822,-7
"730",14,10,0.568610388769116,1,1,1,1,1,1047,-6
"731",14,11,0.639477319569639,1,2,0,0,1,1305,-5
"732",14,12,0.585295312952462,1,3,0,0,1,797,-4
"733",14,13,0.452543806093847,1,2,0,0,1,2363,-3
"734",14,14,0.438280256489638,-1,3,0,0,1,1249,-2
"735",14,15,0.43201713224694,-1,1,1,1,1,918,-1
"736",14,16,0.308600249778112,-1,3,0,0,1,836,0
"737",14,17,0.301074632374012,-1,2,1,0,-1,1169,-1
"738",14,18,0.387318969749334,-1,1,0,1,-1,802,-2
"739",14,19,0.239942045626313,-1,2,0,0,1,1444,-1
"740",14,20,0.205761284369678,-1,1,1,1,1,1018,0
"741",14,21,0.187980730974509,1,3,0,0,1,781,1
"742",14,22,0.207613114761213,-1,1,0,1,-1,853,0
"743",14,23,0.263686085276884,-1,2,1,0,-1,1321,-1
"744",14,24,0.290044339325469,-1,1,1,1,1,724,0
"745",14,25,0.262839467081728,-1,3,0,0,1,850,1
"746",14,26,0.310304705534797,1,2,1,0,-1,1428,0
"747",14,27,0.276306300229483,-1,3,0,0,1,942,1
"748",14,28,0.404361883626325,-1,2,0,1,-1,896,0
"749",14,29,0.468222881094478,-1,1,0,1,-1,1025,-1
"750",14,30,0.536491943822669,1,2,1,1,1,974,0
"751",14,31,0.479173363172602,1,3,0,0,1,812,1
"752",14,32,0.57916157301393,1,1,1,1,1,1031,2
"753",14,33,0.623050431362738,1,3,0,0,1,843,3
"754",14,34,0.693223107277899,1,1,1,1,1,794,4
"755",14,35,0.801560120883213,1,2,0,1,-1,2529,3
"756",14,36,0.689269977167619,1,1,1,1,1,713,4
"757",14,37,0.771618507790823,1,3,0,0,1,741,5
"758",14,38,0.766636195980083,1,2,1,1,1,987,6
"759",14,39,0.780824930520081,-1,3,1,0,-1,845,5
"760",14,40,0.718423872190133,1,2,0,1,-1,1173,4
"761",14,41,0.685810817554703,-1,1,1,1,1,582,5
"762",14,42,0.603069902865955,-1,2,1,1,1,1169,6
"763",14,43,0.650027893139015,1,3,0,0,1,708,7
"764",14,44,0.510845094364306,1,2,0,1,-1,895,6
"765",14,45,0.566556069668031,1,1,0,1,-1,691,5
"766",14,46,0.507875939489137,1,3,1,0,-1,963,4
"767",14,47,0.428528194774059,-1,1,1,1,1,1088,5
"768",14,48,0.448438245373231,1,3,0,0,1,745,6
"769",14,49,0.314977079751773,-1,2,1,1,1,744,7
"770",14,50,0.401190119917481,-1,3,0,0,1,666,8
"771",14,51,0.364731603245666,1,1,1,1,1,573,9
"772",14,52,0.264567858953722,1,2,1,1,1,496,10
"773",14,53,0.340887358588422,-1,1,1,1,1,739,11
"774",14,54,0.421063785792912,-1,2,1,1,1,829,12
"775",14,55,0.493514523200762,-1,3,0,0,1,566,13
"776",14,56,0.485459920972565,-1,2,0,1,-1,919,12
"777",14,57,0.476682191840039,-1,1,1,1,1,728,13
"778",14,58,0.480941797795893,-1,3,1,0,-1,887,12
"779",14,59,0.465892797083867,-1,1,1,1,1,821,13
"780",14,60,0.535200633209386,1,3,0,0,1,729,14
"781",15,1,0.588936643395573,-1,1,1,1,1,1237,7
"782",15,2,0.639285787943808,-1,2,1,1,1,1045,8
"783",15,3,0.53653368766843,-1,3,0,0,1,617,9
"784",15,4,0.452691903951435,-1,2,1,1,1,1949,10
"785",15,5,0.41149057069879,-1,1,1,1,1,661,11
"786",15,6,0.297242432601393,-1,3,0,0,1,752,12
"787",15,7,0.326288353461974,-1,1,1,1,1,680,13
"788",15,8,0.423438661676222,-1,3,0,0,1,1028,14
"789",15,9,0.357719112355375,-1,2,0,1,-1,797,13
"790",15,10,0.374771051899229,1,3,0,0,1,902,14
"791",15,11,0.441053418519044,-1,1,1,1,1,654,15
"792",15,12,0.457857334145242,-1,2,0,0,1,1221,16
"793",15,13,0.345744082310223,1,1,0,1,-1,900,15
"794",15,14,0.342623722843775,1,2,1,0,-1,790,14
"795",15,15,0.295358353543482,-1,3,0,0,1,813,15
"796",15,16,0.253682036388013,1,2,0,1,-1,1067,14
"797",15,17,0.28058590917782,-1,1,0,1,-1,551,13
"798",15,18,0.150745850491264,-1,3,1,0,-1,749,12
"799",15,19,0.182129872496398,-1,1,1,1,1,788,13
"800",15,20,0.137027821378283,-1,3,1,0,-1,713,12
"801",15,21,0.121258564432043,-1,2,1,1,1,759,13
"802",15,22,0.175519569842509,-1,3,0,0,1,785,14
"803",15,23,0.158284308476351,-1,1,1,1,1,688,15
"804",15,24,0.237281125846319,-1,3,0,0,1,601,16
"805",15,25,0.114149843315011,-1,2,1,1,1,731,17
"806",15,26,0.112365341295526,1,1,1,1,1,640,18
"807",15,27,0.149935052781422,-1,2,0,0,1,1274,19
"808",15,28,0.144712695230858,-1,1,0,0,1,587,20
"809",15,29,0.163064312931987,-1,3,0,0,1,974,21
"810",15,30,0.144696318067183,-1,1,0,1,-1,925,20
"811",15,31,0.280516335927511,-1,2,0,1,-1,915,19
"812",15,32,0.277704891765662,1,3,0,0,1,666,20
"813",15,33,0.405290401166687,1,2,1,1,1,926,21
"814",15,34,0.553086289603554,-1,3,0,0,1,782,22
"815",15,35,0.612831918230652,1,1,1,1,1,483,23
"816",15,36,0.519937301478572,1,3,1,1,1,582,24
"817",15,37,0.551278802243385,1,2,0,1,-1,848,23
"818",15,38,0.606121652506363,1,1,1,1,1,778,24
"819",15,39,0.655317544819777,-1,2,1,1,1,682,25
"820",15,40,0.631503222271532,1,1,1,1,1,787,26
"821",15,41,0.649497182783758,1,3,0,0,1,739,27
"822",15,42,0.605975204428604,1,1,1,1,1,670,28
"823",15,43,0.635904529514321,-1,2,1,1,1,1797,29
"824",15,44,0.622796261063353,1,1,1,1,1,753,30
"825",15,45,0.54993857537346,1,3,0,0,1,773,31
"826",15,46,0.607083543553378,-1,2,0,0,1,675,32
"827",15,47,0.555895808893159,1,3,0,0,1,811,33
"828",15,48,0.631663303091323,1,2,1,1,1,1018,34
"829",15,49,0.601417050109496,1,1,1,1,1,792,35
"830",15,50,0.656027797924183,1,2,0,0,1,1352,36
"831",15,51,0.66341465775157,1,3,1,0,-1,1377,35
"832",15,52,0.592795648908813,1,1,1,1,1,695,36
"833",15,53,0.707552245867043,1,3,0,0,1,724,37
"834",15,54,0.810466980400063,1,1,0,1,-1,672,36
"835",15,55,0.834205481737159,-1,2,1,1,1,698,37
"836",15,56,0.683735563662513,1,1,1,1,1,825,38
"837",15,57,0.641254050452325,-1,3,0,0,1,680,39
"838",15,58,0.759873993111563,1,2,0,1,-1,1097,38
"839",15,59,0.714582153495532,1,3,1,0,-1,890,37
"840",15,60,0.70862034083555,1,2,0,1,-1,1431,36
"841",16,1,0.431038129845198,-1,3,0,0,1,2439,5
"842",16,2,0.359162343535538,1,1,1,1,1,890,6
"843",16,3,0.494784838427701,1,2,0,1,-1,700,5
"844",16,4,0.521064458851657,-1,1,1,1,1,585,6
"845",16,5,0.397942283553166,-1,3,0,0,1,837,7
"846",16,6,0.359239982256533,-1,2,0,0,1,886,8
"847",16,7,0.293506143642834,-1,3,0,0,1,605,9
"848",16,8,0.342096121260625,1,2,1,0,-1,173,8
"849",16,9,0.307177270035076,-1,1,0,1,-1,589,7
"850",16,10,0.447098469796533,-1,2,1,1,1,758,8
"851",16,11,0.413020212076503,-1,3,1,0,-1,588,7
"852",16,12,0.281565576284513,-1,1,1,1,1,584,8
"853",16,13,0.272106459951329,-1,3,0,1,-1,343,7
"854",16,14,0.290121020544159,1,1,1,1,1,465,8
"855",16,15,0.29261458560357,-1,2,1,1,1,1415,9
"856",16,16,0.371676845803095,1,1,0,1,-1,716,8
"857",16,17,0.3380531010996,1,3,0,0,1,665,9
"858",16,18,0.395173633838853,1,2,0,1,-1,1255,8
"859",16,19,0.399998153782748,1,3,0,0,1,3395,9
"860",16,20,0.266688333400648,1,2,0,1,-1,1124,8
"861",16,21,0.315810272941812,-1,2,1,1,1,1044,9
"862",16,22,0.347672583217837,-1,3,0,1,-1,482,8
"863",16,23,0.411064973973526,1,1,1,1,1,663,9
"864",16,24,0.401560728480266,1,3,0,1,-1,694,8
"865",16,25,0.433873288933204,-1,2,1,1,1,480,9
"866",16,26,0.535128651402387,-1,1,1,1,1,1732,10
"867",16,27,0.417829215262226,-1,2,0,1,-1,1015,9
"868",16,28,0.361594297559274,1,1,1,1,1,676,10
"869",16,29,0.404261614946032,1,3,1,0,-1,742,9
"870",16,30,0.563610271898396,-1,1,0,1,-1,570,8
"871",16,31,0.542811995920607,-1,2,0,0,1,472,9
"872",16,32,0.562979699954689,-1,3,0,0,1,665,10
"873",16,33,0.455671204475043,-1,2,0,0,1,752,11
"874",16,34,0.483992358725261,-1,3,1,0,-1,936,10
"875",16,35,0.477551978196399,-1,1,1,1,1,694,11
"876",16,36,0.441300439770967,-1,3,0,0,1,1132,12
"877",16,37,0.362656579099952,1,2,1,0,-1,4388,11
"878",16,38,0.41044614058078,1,1,1,1,1,503,12
"879",16,39,0.441864198743881,-1,2,0,0,1,1149,13
"880",16,40,0.45405611775541,-1,1,1,1,1,2036,14
"881",16,41,0.590119553542132,1,1,0,1,-1,653,13
"882",16,42,0.578590865813479,1,2,1,1,1,612,14
"883",16,43,0.730730960559466,1,3,0,0,1,2588,15
"884",16,44,0.531970721414175,-1,2,1,1,1,514,16
"885",16,45,0.597934622522721,1,1,1,1,1,530,17
"886",16,46,0.628893951631897,1,3,0,1,-1,552,16
"887",16,47,0.646494755274206,1,1,1,1,1,711,17
"888",16,48,0.692762098898947,-1,3,1,0,-1,635,16
"889",16,49,0.734406555897146,-1,2,0,1,-1,997,15
"890",16,50,0.825069374935995,1,3,0,0,1,764,16
"891",16,51,0.849086580536412,1,1,1,1,1,474,17
"892",16,52,0.874422964106761,1,2,1,0,-1,818,16
"893",16,53,0.805968814597866,1,1,1,1,1,601,17
"894",16,54,0.833555173345852,1,2,0,0,1,671,18
"895",16,55,0.894883054199626,1,3,0,0,1,720,19
"896",16,56,0.888398309709138,1,2,1,0,-1,292,18
"897",16,57,0.883338380303796,1,1,1,1,1,576,19
"898",16,58,0.885176329055943,1,3,0,0,1,699,20
"899",16,59,0.892278270672052,1,1,0,1,-1,708,19
"900",16,60,0.884425754195456,1,3,1,0,-1,1498,18
"901",17,1,0.473071540322647,1,1,1,1,1,965,-1
"902",17,2,0.560039712686131,1,2,1,1,1,1322,0
"903",17,3,0.458400633989336,-1,3,0,0,1,802,1
"904",17,4,0.60207946263475,1,2,0,1,-1,1428,0
"905",17,5,0.584502079046753,1,1,1,1,1,1145,1
"906",17,6,0.60423026926671,-1,3,0,0,1,918,2
"907",17,7,0.640525038108826,1,1,1,1,1,1077,3
"908",17,8,0.634226592655572,-1,3,0,0,1,992,4
"909",17,9,0.704397201836379,1,2,0,0,1,1176,5
"910",17,10,0.811561478037414,1,3,1,0,-1,1021,4
"911",17,11,0.894001153966566,1,1,1,1,1,888,5
"912",17,12,0.876955634289198,1,2,0,1,-1,806,4
"913",17,13,0.892855309875394,1,1,1,1,1,992,5
"914",17,14,0.884138707978443,1,2,0,0,1,1549,6
"915",17,15,0.856411750298888,1,3,0,0,1,1021,7
"916",17,16,0.769788878056131,-1,2,1,0,-1,1196,6
"917",17,17,0.600025602705256,-1,1,1,1,1,810,7
"918",17,18,0.594224580568588,-1,3,0,0,1,888,8
"919",17,19,0.597506101707634,1,1,1,1,1,1075,9
"920",17,20,0.569360677092248,1,3,1,0,-1,1271,8
"921",17,21,0.590886936121606,1,3,0,0,1,965,9
"922",17,22,0.490165561847684,1,1,0,1,-1,865,8
"923",17,23,0.49024199082313,1,2,1,0,-1,1486,7
"924",17,24,0.548762381268785,1,1,1,1,1,674,8
"925",17,25,0.623811627223639,1,3,0,0,1,998,9
"926",17,26,0.526875297019255,1,2,0,0,1,1165,10
"927",17,27,0.680695585852687,1,3,0,0,1,948,11
"928",17,28,0.578650410214668,1,2,1,1,1,1292,12
"929",17,29,0.588595065848475,-1,1,1,1,1,747,13
"930",17,30,0.64333287199252,-1,2,1,0,-1,749,12
"931",17,31,0.600427558278082,1,3,1,0,-1,803,11
"932",17,32,0.44746578967367,1,1,0,1,-1,620,10
"933",17,33,0.529550477338134,1,3,0,0,1,990,11
"934",17,34,0.469982780876771,1,1,1,1,1,684,12
"935",17,35,0.477575171009026,1,2,0,1,-1,712,11
"936",17,36,0.408436125253515,-1,1,0,1,-1,924,10
"937",17,37,0.436183721664632,-1,3,0,0,1,1016,11
"938",17,38,0.413720033073687,-1,2,0,0,1,1191,12
"939",17,39,0.474249787017618,-1,3,1,0,-1,974,11
"940",17,40,0.379945484480526,1,2,0,0,1,1331,12
"941",17,41,0.32496665093758,-1,2,0,1,-1,1314,11
"942",17,42,0.326601947895394,-1,3,0,0,1,867,12
"943",17,43,0.30762299896334,-1,1,1,1,1,650,13
"944",17,44,0.149152582335225,-1,3,0,0,1,853,14
"945",17,45,0.12379759978577,-1,2,1,1,1,851,15
"946",17,46,0.236469822232408,-1,1,1,1,1,670,16
"947",17,47,0.361937291742367,1,2,1,0,-1,1057,15
"948",17,48,0.469044931401435,1,1,0,1,-1,921,14
"949",17,49,0.438754660190922,-1,3,0,0,1,896,15
"950",17,50,0.465796324484019,-1,1,1,1,1,847,16
"951",17,51,0.622892934977905,-1,2,1,1,1,652,17
"952",17,52,0.464890939236602,-1,3,0,0,1,619,18
"953",17,53,0.336056153149309,-1,2,1,1,1,1000,19
"954",17,54,0.28072509174139,-1,3,0,0,1,882,20
"955",17,55,0.210686591515848,-1,1,1,1,1,556,21
"956",17,56,0.233012580943199,-1,3,1,0,-1,847,20
"957",17,57,0.152854833496398,-1,2,1,1,1,998,21
"958",17,58,0.200030145016083,-1,1,1,1,1,499,22
"959",17,59,0.211980041143184,-1,2,0,0,1,1195,23
"960",17,60,0.163877939352895,-1,1,0,1,-1,634,22
"961",18,1,0.531699280953035,NA,1,NA,NA,NA,NA,-6
"962",18,2,0.567947276267705,NA,2,NA,NA,NA,NA,-6
"963",18,3,0.494797533534604,-1,3,0,0,1,1122,-5
"964",18,4,0.411367940655494,1,2,1,0,-1,1544,-6
"965",18,5,0.351726855890053,1,1,0,0,1,1600,-5
"966",18,6,0.309228591746672,-1,3,0,0,1,1017,-4
"967",18,7,0.240552147393718,-1,1,1,0,-1,723,-5
"968",18,8,0.312494164490686,1,3,0,0,1,1336,-4
"969",18,9,0.319735551326068,1,2,0,1,-1,800,-5
"970",18,10,0.317959158872204,1,3,0,1,-1,1271,-6
"971",18,11,0.302900501791691,-1,1,1,1,1,1304,-5
"972",18,12,0.308161425023245,-1,2,1,0,-1,1407,-6
"973",18,13,0.290108014449759,-1,1,1,1,1,864,-5
"974",18,14,0.308566638239317,-1,2,0,1,-1,1193,-6
"975",18,15,0.383998417528728,1,3,0,0,1,759,-5
"976",18,16,0.417900004698758,1,2,0,0,1,1439,-4
"977",18,17,0.472719611561306,1,1,1,1,1,785,-3
"978",18,18,0.391776657168786,1,3,0,0,1,735,-2
"979",18,19,0.4322658326501,-1,1,1,0,-1,432,-3
"980",18,20,0.407656227582271,1,3,1,0,-1,704,-4
"981",18,21,0.484248400539229,-1,2,1,0,-1,672,-5
"982",18,22,0.537477926091426,-1,3,0,1,-1,551,-6
"983",18,23,0.520134363310451,-1,1,1,1,1,624,-5
"984",18,24,0.595948257535309,1,3,1,0,-1,615,-6
"985",18,25,0.63840086625618,1,2,0,0,1,1072,-5
"986",18,26,0.67263115946181,-1,1,1,1,1,1436,-4
"987",18,27,0.607148161780043,-1,2,0,0,1,1387,-3
"988",18,28,0.606309154954562,-1,1,0,1,-1,1048,-4
"989",18,29,0.57312343909946,-1,3,1,0,-1,824,-5
"990",18,30,0.608725319046027,1,1,1,1,1,800,-4
"991",18,31,0.601192284376587,-1,2,1,1,1,783,-3
"992",18,32,0.660944097430991,1,3,0,0,1,1344,-2
"993",18,33,0.74271327607653,1,2,0,0,1,448,-1
"994",18,34,0.80788806732323,-1,3,0,0,1,608,0
"995",18,35,0.789297366919838,1,1,0,0,1,984,1
"996",18,36,0.834270663022291,-1,3,0,0,1,584,2
"997",18,37,0.893059051794746,-1,2,1,0,-1,775,1
"998",18,38,0.850597218535034,1,1,1,1,1,1753,2
"999",18,39,0.813886564639142,1,2,0,0,1,767,3
"1000",18,40,0.857489341601127,1,1,1,0,-1,1223,2
"1001",18,41,0.8476696185557,-1,3,0,0,1,600,3
"1002",18,42,0.691011281574433,-1,1,1,1,1,878,4
"1003",18,43,0.593899376087739,-1,2,0,0,1,936,5
"1004",18,44,0.582109002150094,1,1,0,1,-1,644,4
"1005",18,45,0.600402709292549,-1,3,1,0,-1,769,3
"1006",18,46,0.491880665523933,1,2,0,0,1,703,4
"1007",18,47,0.497325446141885,-1,3,0,0,1,680,5
"1008",18,48,0.460607720951866,1,2,1,0,-1,1080,4
"1009",18,49,0.404490343220975,-1,1,1,1,1,1328,5
"1010",18,50,0.492137301927121,-1,2,0,0,1,759,6
"1011",18,51,0.468403106043357,1,3,0,0,1,649,7
"1012",18,52,0.52062785397646,-1,1,1,1,1,1317,8
"1013",18,53,0.495383665184874,1,3,0,0,1,761,9
"1014",18,54,0.479745585536725,1,1,1,1,1,589,10
"1015",18,55,0.498290257004766,1,2,1,0,-1,560,9
"1016",18,56,0.501632728283386,-1,1,0,1,-1,767,8
"1017",18,57,0.521915064470396,-1,3,0,0,1,921,9
"1018",18,58,0.538967290602821,-1,2,1,0,-1,791,8
"1019",18,59,0.446399482097286,1,3,1,0,-1,764,7
"1020",18,60,0.432786288490974,-1,2,1,0,-1,704,6
"1021",19,1,0.56410020571202,-1,1,1,1,1,2236,9
"1022",19,2,0.666908810939147,1,2,0,1,-1,1236,8
"1023",19,3,0.597322081933676,1,3,0,0,1,1036,9
"1024",19,4,0.567320576709496,1,2,0,1,-1,1234,8
"1025",19,5,0.55812511629976,-1,1,1,1,1,624,9
"1026",19,6,0.508156190453694,1,3,0,0,1,873,10
"1027",19,7,0.564771917804762,1,1,1,1,1,705,11
"1028",19,8,0.7107400904584,1,3,0,0,1,3401,12
"1029",19,9,0.739179503899363,1,2,0,0,1,3618,13
"1030",19,10,0.779240976445436,-1,3,1,0,-1,3392,12
"1031",19,11,0.83317952912482,NA,1,NA,NA,NA,NA,12
"1032",19,12,0.789183088865194,1,2,0,1,-1,1814,11
"1033",19,13,0.804368816572395,1,1,1,1,1,729,12
"1034",19,14,0.714951130786666,1,2,0,0,1,1093,13
"1035",19,15,0.677771521924462,-1,3,0,0,1,548,14
"1036",19,16,0.725845215132548,1,2,0,0,1,1265,15
"1037",19,17,0.773746091194497,-1,1,1,1,1,631,16
"1038",19,18,0.676924915654569,-1,3,1,0,-1,609,15
"1039",19,19,0.66354415003224,-1,1,0,1,-1,839,14
"1040",19,20,0.658743628771862,1,3,1,0,-1,673,13
"1041",19,21,0.615760954235946,1,3,0,1,-1,814,12
"1042",19,22,0.499055781751537,1,1,1,1,1,843,13
"1043",19,23,0.488291549208192,1,2,1,1,1,762,14
"1044",19,24,0.464970045916217,-1,1,1,1,1,608,15
"1045",19,25,0.510235338911709,-1,3,0,0,1,720,16
"1046",19,26,0.611002038879524,-1,2,0,0,1,1079,17
"1047",19,27,0.484153112205373,1,3,0,0,1,658,18
"1048",19,28,0.510890393599352,1,2,1,0,-1,527,17
"1049",19,29,0.547850281921846,-1,1,1,1,1,583,18
"1050",19,30,0.512419296872037,1,2,1,1,1,1128,19
"1051",19,31,0.513153359730154,1,3,1,0,-1,815,18
"1052",19,32,0.545516500773052,1,1,1,1,1,610,19
"1053",19,33,0.571044227434489,-1,3,0,0,1,830,20
"1054",19,34,0.5479628805399,-1,1,1,1,1,689,21
"1055",19,35,0.594074767786791,-1,2,1,0,-1,829,20
"1056",19,36,0.546950902027506,-1,1,0,1,-1,659,19
"1057",19,37,0.560924103119456,-1,3,0,0,1,756,20
"1058",19,38,0.571597831554767,1,2,0,0,1,655,21
"1059",19,39,0.563371581567434,1,3,0,0,1,578,22
"1060",19,40,0.455987512188157,-1,2,1,0,-1,503,21
"1061",19,41,0.42802885125782,-1,2,1,0,-1,955,20
"1062",19,42,0.323712965112357,-1,3,0,0,1,718,21
"1063",19,43,0.184511001480526,1,1,0,1,-1,622,20
"1064",19,44,0.16403216759791,-1,3,0,0,1,627,21
"1065",19,45,0.134229222625516,-1,2,0,0,1,822,22
"1066",19,46,0.19523738761906,-1,1,1,1,1,782,23
"1067",19,47,0.251363612088771,1,2,1,0,-1,661,22
"1068",19,48,0.215054850651897,-1,1,1,1,1,655,23
"1069",19,49,0.195626310793305,-1,3,1,0,-1,735,22
"1070",19,50,0.247261198218388,1,1,0,1,-1,549,21
"1071",19,51,0.203824877299587,1,2,1,1,1,860,22
"1072",19,52,0.182677007006848,-1,3,0,0,1,641,23
"1073",19,53,0.163689813003941,-1,2,1,0,-1,1235,22
"1074",19,54,0.106789949269527,-1,3,0,0,1,706,23
"1075",19,55,0.128093414300928,-1,1,1,1,1,460,24
"1076",19,56,0.248329968126047,1,3,0,0,1,733,25
"1077",19,57,0.217623284131556,-1,2,0,1,-1,1014,24
"1078",19,58,0.174181579966633,-1,1,0,1,-1,517,23
"1079",19,59,0.187276067523396,-1,2,1,1,1,768,24
"1080",19,60,0.162396276137629,-1,1,1,1,1,585,25
"1081",20,1,0.54888766342774,1,2,0,1,-1,1743,-4
"1082",20,2,0.607886682340795,-1,3,0,1,-1,2837,-5
"1083",20,3,0.657116582738031,1,1,1,1,1,920,-4
"1084",20,4,0.761818119257529,1,3,0,0,1,1014,-3
"1085",20,5,0.792399625669949,1,2,0,0,1,811,-2
"1086",20,6,0.836834532639829,1,1,0,1,-1,588,-3
"1087",20,7,0.718872436799404,1,2,0,1,-1,794,-4
"1088",20,8,0.723448945341347,1,1,1,1,1,968,-3
"1089",20,9,0.72953823254645,-1,3,0,0,1,879,-2
"1090",20,10,0.716809130901305,-1,1,1,1,1,805,-1
"1091",20,11,0.757187133644529,1,2,1,0,-1,1076,-2
"1092",20,12,0.788201134036641,1,3,0,0,1,1163,-1
"1093",20,13,0.683843696807118,1,2,1,1,1,1566,0
"1094",20,14,0.695657234905961,1,3,0,0,1,1338,1
"1095",20,15,0.684779907177064,1,1,1,1,1,728,2
"1096",20,16,0.686121829151929,1,3,0,0,1,939,3
"1097",20,17,0.598570408448644,1,2,1,0,-1,1056,2
"1098",20,18,0.642134583295666,1,1,1,1,1,1023,3
"1099",20,19,0.619499626170818,1,2,1,1,1,1723,4
"1100",20,20,0.610358472096584,1,1,1,1,1,1113,5
"1101",20,21,0.636655396484896,-1,1,1,1,1,857,6
"1102",20,22,0.684821187010732,1,2,1,1,1,1334,7
"1103",20,23,0.556465619824914,-1,3,1,0,-1,1074,6
"1104",20,24,0.504980051516187,-1,2,0,1,-1,1302,5
"1105",20,25,0.512779935769659,1,1,1,1,1,1111,6
"1106",20,26,0.638099939006086,1,3,1,0,-1,1361,5
"1107",20,27,0.541528604014112,-1,1,0,1,-1,1491,4
"1108",20,28,0.437691871577582,-1,3,0,0,1,1004,5
"1109",20,29,0.326416229385406,-1,2,1,0,-1,1395,4
"1110",20,30,0.38150773536212,-1,3,1,0,-1,1177,3
"1111",20,31,0.419562338773709,-1,1,1,1,1,974,4
"1112",20,32,0.372806444945219,1,2,0,1,-1,1202,3
"1113",20,33,0.297216948679918,-1,1,0,1,-1,1000,2
"1114",20,34,0.360924243533859,1,2,0,1,-1,1255,1
"1115",20,35,0.317646683068964,1,3,0,0,1,1311,2
"1116",20,36,0.334535885976087,-1,2,1,1,1,1193,3
"1117",20,37,0.241616882538899,-1,1,1,1,1,1038,4
"1118",20,38,0.317114892227636,1,3,0,0,1,1194,5
"1119",20,39,0.447851581426577,-1,1,1,1,1,856,6
"1120",20,40,0.535806524555724,1,3,0,0,1,1055,7
"1121",20,41,0.459188496590603,-1,3,0,0,1,1050,8
"1122",20,42,0.430997280861407,1,1,0,1,-1,892,7
"1123",20,43,0.452869829300939,1,2,0,0,1,1683,8
"1124",20,44,0.547401404709617,-1,1,1,1,1,1077,9
"1125",20,45,0.493551890966174,1,3,1,0,-1,1137,8
"1126",20,46,0.451400671581464,1,2,1,1,1,1223,9
"1127",20,47,0.364213321819216,-1,3,0,0,1,1429,10
"1128",20,48,0.33196407092064,-1,2,0,1,-1,1329,9
"1129",20,49,0.26568741030202,-1,1,1,1,1,992,10
"1130",20,50,0.316076936446864,1,2,1,1,1,1456,11
"1131",20,51,0.206415872227902,-1,3,1,0,-1,1225,10
"1132",20,52,0.142167828264697,-1,1,1,1,1,1054,11
"1133",20,53,0.122132495507901,-1,3,0,0,1,1422,12
"1134",20,54,0.13417622766847,-1,1,1,1,1,1100,13
"1135",20,55,0.128758105583114,1,2,0,1,-1,1597,12
"1136",20,56,0.122395935463772,-1,1,0,1,-1,1420,11
"1137",20,57,0.107173429963602,-1,3,0,0,1,1334,12
"1138",20,58,0.157708023003716,-1,2,1,1,1,1063,13
"1139",20,59,0.154433110113162,-1,3,0,0,1,1432,14
"1140",20,60,0.155953555768936,-1,2,0,1,-1,1138,13
"1141",21,1,0.575496091460809,1,1,1,1,1,2161,-1
"1142",21,2,0.621898897608595,1,2,0,1,-1,2419,-2
"1143",21,3,0.616070687559173,-1,3,0,0,1,972,-1
"1144",21,4,0.640690933086856,1,2,1,0,-1,1801,-2
"1145",21,5,0.61090614570401,1,1,1,1,1,883,-1
"1146",21,6,0.783069438855111,1,3,0,0,1,866,0
"1147",21,7,0.761580587471734,1,1,0,1,-1,915,-1
"1148",21,8,0.842525196004223,1,3,1,0,-1,682,-2
"1149",21,9,0.716491877221801,-1,2,1,1,1,1041,-1
"1150",21,10,0.747944398225285,1,3,0,0,1,830,0
"1151",21,11,0.714091307643545,-1,1,1,1,1,670,1
"1152",21,12,0.689677548152236,1,2,1,1,1,1177,2
"1153",21,13,0.801060478922331,1,1,1,1,1,1579,3
"1154",21,14,0.894533640237767,1,2,0,1,-1,973,2
"1155",21,15,0.873512963428056,1,3,0,0,1,995,3
"1156",21,16,0.830108055708747,1,2,0,1,-1,965,2
"1157",21,17,0.790912227617848,1,1,1,1,1,602,3
"1158",21,18,0.769802390016955,-1,3,0,0,1,907,4
"1159",21,19,0.813530698187336,1,1,1,1,1,569,5
"1160",21,20,0.784339692710622,-1,3,1,0,-1,844,4
"1161",21,21,0.7905789178905,1,3,1,0,-1,1168,3
"1162",21,22,0.707719145852589,1,1,1,1,1,752,4
"1163",21,23,0.656895650660927,1,2,1,1,1,979,5
"1164",21,24,0.579159089414514,1,1,1,1,1,783,6
"1165",21,25,0.521741701574993,1,3,0,0,1,657,7
"1166",21,26,0.560856848844298,-1,2,0,1,-1,1430,6
"1167",21,27,0.525363356520403,1,3,0,0,1,838,7
"1168",21,28,0.546197928767593,-1,2,1,1,1,880,8
"1169",21,29,0.50954907327034,1,1,1,1,1,703,9
"1170",21,30,0.495813180928752,1,2,0,0,1,922,10
"1171",21,31,0.451237049911214,-1,3,0,0,1,820,11
"1172",21,32,0.21250724397283,-1,1,0,1,-1,558,10
"1173",21,33,0.157623636630897,-1,3,0,0,1,972,11
"1174",21,34,0.150858658045807,-1,1,0,1,-1,697,10
"1175",21,35,0.216344728180404,-1,2,1,1,1,779,11
"1176",21,36,0.277673049123476,-1,1,1,1,1,844,12
"1177",21,37,0.237117649269983,-1,3,0,1,-1,975,11
"1178",21,38,0.175349158473601,-1,2,0,1,-1,1027,10
"1179",21,39,0.12647365868582,-1,3,1,0,-1,1054,9
"1180",21,40,0.162819782397968,-1,2,1,1,1,748,10
"1181",21,41,0.128965088354021,-1,2,0,1,-1,945,9
"1182",21,42,0.111916011502264,-1,3,0,0,1,759,10
"1183",21,43,0.162841194804338,1,1,1,1,1,688,11
"1184",21,44,0.230813877829905,1,3,0,0,1,834,12
"1185",21,45,0.382490004151551,1,2,1,1,1,992,13
"1186",21,46,0.333406099065499,-1,1,1,1,1,771,14
"1187",21,47,0.254250484217449,-1,2,0,1,-1,1259,13
"1188",21,48,0.267624081124153,-1,1,1,1,1,745,14
"1189",21,49,0.30377839655546,-1,3,0,0,1,799,15
"1190",21,50,0.369444489210683,1,1,0,1,-1,801,14
"1191",21,51,0.378107639438943,-1,2,1,1,1,936,15
"1192",21,52,0.390603024887216,1,3,1,0,-1,626,14
"1193",21,53,0.384959382718066,-1,2,0,1,-1,736,13
"1194",21,54,0.480694703980458,-1,3,0,1,-1,936,12
"1195",21,55,0.472476216012907,-1,1,1,1,1,699,13
"1196",21,56,0.545331141362155,1,3,0,0,1,1156,14
"1197",21,57,0.568896080513057,-1,2,1,1,1,523,15
"1198",21,58,0.571683523489911,-1,1,1,1,1,681,16
"1199",21,59,0.638555233099706,-1,2,0,1,-1,633,15
"1200",21,60,0.598352506795824,1,1,0,1,-1,777,14
"1201",22,1,0.577093908796087,-1,1,1,1,1,1423,1
"1202",22,2,0.533055005204621,1,2,0,1,-1,1049,0
"1203",22,3,0.451782906211926,-1,3,1,0,-1,1185,-1
"1204",22,4,0.453460158638884,-1,2,1,1,1,929,0
"1205",22,5,0.440377446785995,-1,1,0,1,-1,706,-1
"1206",22,6,0.446814359006116,-1,3,0,1,-1,1000,-2
"1207",22,7,0.365892300203314,-1,1,1,1,1,1179,-1
"1208",22,8,0.441439443327533,-1,3,0,0,1,1187,0
"1209",22,9,0.519567795654343,1,2,1,1,1,1302,1
"1210",22,10,0.458138226848277,-1,3,0,0,1,986,2
"1211",22,11,0.523033635314489,1,1,1,0,-1,1867,1
"1212",22,12,0.573532224781253,1,2,1,1,1,838,2
"1213",22,13,0.723376755945402,1,1,1,1,1,892,3
"1214",22,14,0.601792274397769,-1,2,1,1,1,774,4
"1215",22,15,0.551936905963172,1,3,0,1,-1,899,3
"1216",22,16,0.572200992497813,-1,2,0,1,-1,960,2
"1217",22,17,0.638973543560589,-1,1,1,1,1,609,3
"1218",22,18,0.5023886953305,-1,3,0,0,1,1622,4
"1219",22,19,0.530018600093213,1,1,1,1,1,774,5
"1220",22,20,0.459654296183549,-1,3,1,0,-1,1190,4
"1221",22,21,0.382007958692804,-1,2,1,1,1,679,5
"1222",22,22,0.324089795798708,-1,3,1,1,1,2325,6
"1223",22,23,0.249708527266222,-1,1,1,1,1,703,7
"1224",22,24,0.128536323739916,-1,3,0,1,-1,966,6
"1225",22,25,0.177308467247108,-1,2,0,1,-1,824,5
"1226",22,26,0.301578534002666,-1,1,1,1,1,922,6
"1227",22,27,0.236937467835176,-1,2,1,1,1,770,7
"1228",22,28,0.3050331839853,1,1,1,1,1,554,8
"1229",22,29,0.275749214483661,-1,3,1,0,-1,1270,7
"1230",22,30,0.303464015838463,1,1,0,1,-1,690,6
"1231",22,31,0.325829564466875,-1,2,1,1,1,901,7
"1232",22,32,0.351026176832677,-1,3,0,0,1,1397,8
"1233",22,33,0.265451594524128,-1,2,0,1,-1,628,7
"1234",22,34,0.234392662373063,-1,3,0,1,-1,419,6
"1235",22,35,0.327008109872791,1,1,1,1,1,687,7
"1236",22,36,0.34450890988082,1,3,0,0,1,888,8
"1237",22,37,0.289981045379431,-1,2,0,1,-1,767,7
"1238",22,38,0.300976705160153,-1,1,1,1,1,711,8
"1239",22,39,0.405338381179201,-1,2,0,1,-1,640,7
"1240",22,40,0.480037574599213,-1,1,0,1,-1,904,6
"1241",22,41,0.493255729680952,-1,3,0,0,1,1102,7
"1242",22,42,0.522073511326363,-1,1,1,0,-1,851,6
"1243",22,43,0.55156346043913,-1,2,0,1,-1,698,5
"1244",22,44,0.463202452034409,1,1,1,1,1,647,6
"1245",22,45,0.436161416820916,1,3,0,0,1,848,7
"1246",22,46,0.535546786038768,1,2,1,0,-1,941,6
"1247",22,47,0.413523371486746,-1,3,1,1,1,612,7
"1248",22,48,0.388432757091069,1,2,1,1,1,991,8
"1249",22,49,0.390969014575942,-1,1,0,1,-1,585,7
"1250",22,50,0.453011667800184,-1,2,1,0,-1,1177,6
"1251",22,51,0.439941998689417,-1,3,0,0,1,1108,7
"1252",22,52,0.509314887872248,-1,1,1,1,1,1793,8
"1253",22,53,0.564236451005315,-1,3,0,0,1,1154,9
"1254",22,54,0.515884138270277,1,1,1,1,1,634,10
"1255",22,55,0.600355733315351,1,2,0,1,-1,1252,9
"1256",22,56,0.759842162167861,1,1,0,1,-1,685,8
"1257",22,57,0.823812402327934,1,3,0,0,1,794,9
"1258",22,58,0.881015054808348,1,2,0,1,-1,848,8
"1259",22,59,0.818738735650529,1,3,0,1,-1,615,7
"1260",22,60,0.842392588000738,-1,2,0,1,-1,916,6
"1261",23,1,0.466445758000347,1,3,1,0,-1,2553,7
"1262",23,2,0.514898061776305,1,1,1,1,1,1724,8
"1263",23,3,0.523657052556995,1,2,0,1,-1,3444,7
"1264",23,4,0.694878072043884,1,1,1,1,1,1100,8
"1265",23,5,0.760434646759315,1,3,0,0,1,1375,9
"1266",23,6,0.735214574162748,-1,2,0,1,-1,3743,8
"1267",23,7,0.760353603556246,1,3,0,0,1,1125,9
"1268",23,8,0.77994902805395,1,2,1,0,-1,1252,8
"1269",23,9,0.735136824757275,1,1,0,1,-1,1102,7
"1270",23,10,0.804510516541671,1,2,1,1,1,1334,8
"1271",23,11,0.750843865405565,1,3,0,1,-1,724,7
"1272",23,12,0.811441923512487,1,1,1,1,1,1056,8
"1273",23,13,0.807312944385491,1,3,0,0,1,1859,9
"1274",23,14,0.846970559422731,1,1,0,1,-1,1365,8
"1275",23,15,0.846499428502702,1,2,0,0,1,1328,9
"1276",23,16,0.848630054936259,1,1,0,0,1,1180,10
"1277",23,17,0.875844415835254,1,3,0,1,-1,1100,9
"1278",23,18,0.86426047713863,1,2,1,0,-1,590,8
"1279",23,19,0.752522040264486,-1,3,1,1,1,1522,9
"1280",23,20,0.70960284815041,-1,2,0,1,-1,1343,8
"1281",23,21,0.671863665885892,1,2,1,1,1,381,9
"1282",23,22,0.67183698296045,1,3,0,0,1,1263,10
"1283",23,23,0.687488670184386,1,1,0,0,1,852,11
"1284",23,24,0.623196049758524,1,3,0,1,-1,1115,10
"1285",23,25,0.505643123300265,-1,2,1,0,-1,695,9
"1286",23,26,0.505867050106076,-1,1,1,0,-1,619,8
"1287",23,27,0.658014724474508,-1,2,0,1,-1,587,7
"1288",23,28,0.623385726020672,1,1,1,0,-1,619,6
"1289",23,29,0.583775658851928,1,3,0,0,1,1226,7
"1290",23,30,0.563368176818359,-1,1,1,1,1,903,8
"1291",23,31,0.437569121968178,1,2,0,0,1,811,9
"1292",23,32,0.455616539034678,1,3,0,0,1,724,10
"1293",23,33,0.424685329824009,-1,2,1,0,-1,1054,9
"1294",23,34,0.48861872186238,-1,3,1,0,-1,843,8
"1295",23,35,0.438114815741547,1,1,1,1,1,306,9
"1296",23,36,0.388275182475563,1,3,1,0,-1,1519,8
"1297",23,37,0.432916287069098,-1,2,0,1,-1,573,7
"1298",23,38,0.488352315780236,1,1,1,0,-1,418,6
"1299",23,39,0.38159535703239,-1,2,1,0,-1,394,5
"1300",23,40,0.353360863111044,-1,1,0,0,1,323,6
"1301",23,41,0.306427853331397,-1,1,1,1,1,525,7
"1302",23,42,0.370825430243056,1,2,0,1,-1,1584,6
"1303",23,43,0.403920953905117,-1,3,0,0,1,720,7
"1304",23,44,0.468478782203249,1,2,0,0,1,1260,8
"1305",23,45,0.530159720257538,-1,1,1,1,1,648,9
"1306",23,46,0.58835085072211,1,3,0,0,1,10,10
"1307",23,47,0.551556771256992,1,1,1,1,1,475,11
"1308",23,48,0.590030708966422,-1,3,0,0,1,524,12
"1309",23,49,0.56181502294728,1,2,1,0,-1,1225,11
"1310",23,50,0.507160879915993,-1,3,0,0,1,296,12
"1311",23,51,0.388286299120401,1,1,1,1,1,958,13
"1312",23,52,0.292067943927882,-1,2,1,0,-1,2576,12
"1313",23,53,0.197048225001666,-1,1,1,1,1,487,13
"1314",23,54,0.135256479433372,-1,2,1,0,-1,885,12
"1315",23,55,0.142257735456289,-1,3,0,0,1,17,13
"1316",23,56,0.183837028571096,-1,2,0,1,-1,619,12
"1317",23,57,0.152680934250291,-1,1,1,1,1,565,13
"1318",23,58,0.155403477392384,-1,3,0,1,-1,1104,12
"1319",23,59,0.115352534380373,1,1,1,1,1,1004,13
"1320",23,60,0.110658403033815,1,3,1,1,1,789,14
"1321",24,1,0.406288331248227,-1,1,0,1,-1,1677,1
"1322",24,2,0.368523430641314,1,2,0,0,1,1396,2
"1323",24,3,0.415594205760686,-1,3,0,0,1,775,3
"1324",24,4,0.317245983414749,-1,2,0,0,1,1230,4
"1325",24,5,0.257395873794127,1,1,1,1,1,791,5
"1326",24,6,0.320653580517153,-1,3,1,0,-1,822,4
"1327",24,7,0.394777404886496,-1,1,1,1,1,1047,5
"1328",24,8,0.413949000226551,1,3,0,0,1,902,6
"1329",24,9,0.405647175899543,-1,2,0,1,-1,1574,5
"1330",24,10,0.517448880182194,-1,3,0,0,1,1271,6
"1331",24,11,0.548301235483469,1,1,0,1,-1,1069,5
"1332",24,12,0.509835338063494,-1,2,1,1,1,918,6
"1333",24,13,0.460084823415985,-1,1,1,1,1,806,7
"1334",24,14,0.342731024365111,-1,2,1,1,1,809,8
"1335",24,15,0.335619683899717,-1,3,0,0,1,643,9
"1336",24,16,0.439888668088716,1,2,1,1,1,630,10
"1337",24,17,0.385073676025279,-1,1,1,1,1,694,11
"1338",24,18,0.329809300691473,-1,3,0,0,1,606,12
"1339",24,19,0.265435244002056,-1,1,1,1,1,605,13
"1340",24,20,0.204732143310548,1,3,0,0,1,712,14
"1341",24,21,0.231888890406664,-1,3,1,0,-1,776,13
"1342",24,22,0.276714771561407,-1,1,1,1,1,572,14
"1343",24,23,0.24766364907201,-1,2,1,1,1,629,15
"1344",24,24,0.220947800363684,1,1,1,1,1,591,16
"1345",24,25,0.18020442411963,1,3,0,0,1,726,17
"1346",24,26,0.359336924138702,-1,2,1,1,1,631,18
"1347",24,27,0.344766732782909,1,3,0,0,1,556,19
"1348",24,28,0.236405265700754,-1,2,1,1,1,648,20
"1349",24,29,0.244070952265031,-1,1,0,1,-1,630,19
"1350",24,30,0.373252230187684,-1,2,0,1,-1,694,18
"1351",24,31,0.550776880466047,1,3,0,0,1,615,19
"1352",24,32,0.560887464403441,-1,1,1,1,1,784,20
"1353",24,33,0.552982229363002,1,3,0,0,1,790,21
"1354",24,34,0.531371971845411,-1,1,1,1,1,686,22
"1355",24,35,0.593208974835775,1,2,1,1,1,558,23
"1356",24,36,0.681680784610466,-1,1,0,1,-1,677,22
"1357",24,37,0.682836311629973,1,3,0,0,1,615,23
"1358",24,38,0.623217940669485,-1,2,1,1,1,533,24
"1359",24,39,0.519716548988889,1,3,0,0,1,695,25
"1360",24,40,0.584188255059202,1,2,1,1,1,863,26
"1361",24,41,0.621676857344299,1,2,0,1,-1,614,25
"1362",24,42,0.69703660711741,1,3,1,0,-1,734,24
"1363",24,43,0.639701123304275,1,1,1,1,1,647,25
"1364",24,44,0.701121605157072,1,3,1,0,-1,741,24
"1365",24,45,0.703414721591353,1,2,0,1,-1,670,23
"1366",24,46,0.745572265456017,-1,1,0,1,-1,638,22
"1367",24,47,0.791390223512732,1,2,0,0,1,1175,23
"1368",24,48,0.827943986639109,1,1,1,0,-1,894,22
"1369",24,49,0.892993366243598,1,3,1,1,1,1575,23
"1370",24,50,0.767595129076626,1,1,1,1,1,1694,24
"1371",24,51,0.889909679077875,1,2,0,0,1,647,25
"1372",24,52,0.888123814636355,1,3,0,0,1,1878,26
"1373",24,53,0.776459355321697,1,2,0,0,1,1448,27
"1374",24,54,0.831143629388887,1,3,0,0,1,1293,28
"1375",24,55,0.81807281811274,1,1,1,1,1,1112,29
"1376",24,56,0.877361449977367,1,3,0,0,1,1216,30
"1377",24,57,0.83338765514002,1,2,0,1,-1,1702,29
"1378",24,58,0.825245509879628,1,1,1,1,1,1446,30
"1379",24,59,0.697362762513588,1,2,1,0,-1,1199,29
"1380",24,60,0.662309505711228,1,1,1,1,1,750,30
"1381",25,1,0.47414866592735,1,2,1,0,-1,1766,9
"1382",25,2,0.575349481033135,-1,3,0,0,1,901,10
"1383",25,3,0.6239389063615,1,1,1,1,1,702,11
"1384",25,4,0.571301400480978,1,3,0,0,1,845,12
"1385",25,5,0.537643825075046,-1,2,0,1,-1,879,11
"1386",25,6,0.411239998459123,1,1,0,1,-1,753,10
"1387",25,7,0.357847182373367,-1,2,0,1,-1,967,9
"1388",25,8,0.387106040266002,-1,1,1,0,-1,536,8
"1389",25,9,0.344071370892568,-1,3,0,0,1,1047,9
"1390",25,10,0.279755759222236,-1,1,1,1,1,518,10
"1391",25,11,0.335073001347911,-1,2,1,1,1,792,11
"1392",25,12,0.222930759266419,1,3,1,0,-1,736,10
"1393",25,13,0.205136009928321,-1,2,0,1,-1,777,9
"1394",25,14,0.158214428231493,1,3,0,1,-1,494,8
"1395",25,15,0.106874176274541,-1,1,1,1,1,728,9
"1396",25,16,0.133307632522492,-1,3,0,0,1,752,10
"1397",25,17,0.103260029485456,-1,2,1,1,1,774,11
"1398",25,18,0.119530754695208,-1,1,0,1,-1,528,10
"1399",25,19,0.256656285349951,-1,2,0,0,1,1018,11
"1400",25,20,0.275796350468084,-1,1,1,1,1,807,12
"1401",25,21,0.204607148917928,-1,1,1,1,1,624,13
"1402",25,22,0.173151964141185,-1,2,1,0,-1,841,12
"1403",25,23,0.157251427048546,1,3,1,0,-1,719,11
"1404",25,24,0.130205605302694,-1,2,1,1,1,761,12
"1405",25,25,0.346113178101031,-1,1,1,1,1,735,13
"1406",25,26,0.541292517861307,-1,3,1,0,-1,575,12
"1407",25,27,0.598823014213278,1,1,0,1,-1,639,11
"1408",25,28,0.505801867433427,-1,3,0,0,1,760,12
"1409",25,29,0.458104441907652,1,2,1,1,1,1152,13
"1410",25,30,0.46709072738557,-1,3,0,0,1,1624,14
"1411",25,31,0.478582606731698,-1,1,0,1,-1,770,13
"1412",25,32,0.567321530601934,1,2,1,1,1,598,14
"1413",25,33,0.542928821803392,-1,1,1,1,1,624,15
"1414",25,34,0.50531708491114,-1,2,0,0,1,927,16
"1415",25,35,0.365958043931726,-1,3,0,0,1,728,17
"1416",25,36,0.421023602016671,-1,2,0,0,1,743,18
"1417",25,37,0.397392947995677,-1,1,1,1,1,616,19
"1418",25,38,0.45542173682167,1,3,1,1,1,567,20
"1419",25,39,0.642470671648055,1,1,0,1,-1,607,19
"1420",25,40,0.742341416501052,1,3,0,0,1,680,20
"1421",25,41,0.794563209929597,1,3,0,0,1,567,21
"1422",25,42,0.775203567817289,-1,1,1,1,1,608,22
"1423",25,43,0.796609170385258,1,2,1,1,1,671,23
"1424",25,44,0.740233274991562,1,1,1,1,1,600,24
"1425",25,45,0.755369204902253,1,3,0,0,1,640,25
"1426",25,46,0.843554962278828,1,2,0,0,1,743,26
"1427",25,47,0.840654370747676,1,3,0,1,-1,825,25
"1428",25,48,0.885860648261538,1,2,0,1,-1,774,24
"1429",25,49,0.841681014100869,1,1,1,1,1,625,25
"1430",25,50,0.896134042655012,1,2,0,0,1,624,26
"1431",25,51,0.878630763249574,1,3,0,0,1,656,27
"1432",25,52,0.659330942842859,1,1,1,1,1,686,28
"1433",25,53,0.617707345225273,1,3,0,1,-1,537,27
"1434",25,54,0.554407603768735,1,1,1,0,-1,479,26
"1435",25,55,0.381937607709862,-1,2,1,0,-1,665,25
"1436",25,56,0.335943846145926,-1,1,1,1,1,503,26
"1437",25,57,0.321223431433131,-1,3,0,0,1,807,27
"1438",25,58,0.339679828405921,-1,2,0,1,-1,872,26
"1439",25,59,0.190777852171914,1,3,1,0,-1,559,25
"1440",25,60,0.246903134405328,-1,2,1,1,1,737,26
"1441",26,1,0.512875685794279,1,3,0,0,1,2891,0
"1442",26,2,0.477734235948039,1,1,0,1,-1,1233,-1
"1443",26,3,0.500457773791436,1,2,1,1,1,1710,0
"1444",26,4,0.529711611754154,-1,1,0,1,-1,1259,-1
"1445",26,5,0.446218343289838,-1,3,0,0,1,1112,0
"1446",26,6,0.46630791380311,-1,2,0,0,1,1846,1
"1447",26,7,0.486089402436955,1,3,0,0,1,1075,2
"1448",26,8,0.442001874472591,-1,2,0,1,-1,1144,1
"1449",26,9,0.428064521568149,1,1,1,1,1,928,2
"1450",26,10,0.372882987107426,-1,2,1,0,-1,2156,1
"1451",26,11,0.305082543079484,-1,3,0,0,1,1043,2
"1452",26,12,0.328567841703432,-1,1,1,1,1,725,3
"1453",26,13,0.453968226218916,1,3,1,0,-1,1035,2
"1454",26,14,0.290893773460281,-1,1,1,1,1,733,3
"1455",26,15,0.291994134913928,1,2,0,0,1,1180,4
"1456",26,16,0.194995158702726,-1,1,1,1,1,1271,5
"1457",26,17,0.120440503963733,-1,3,0,0,1,1099,6
"1458",26,18,0.246475889405357,-1,2,0,1,-1,995,5
"1459",26,19,0.265377227436922,1,3,0,0,1,967,6
"1460",26,20,0.242399846144531,1,2,0,1,-1,1493,5
"1461",26,21,0.146512585098082,-1,1,1,1,1,688,6
"1462",26,22,0.242013147152033,-1,2,1,0,-1,2304,5
"1463",26,23,0.314325986494246,-1,3,0,0,1,1332,6
"1464",26,24,0.322129201224968,-1,2,0,1,-1,2098,5
"1465",26,25,0.229127590163714,-1,1,1,1,1,1047,6
"1466",26,26,0.256494515198572,-1,3,1,0,-1,1392,5
"1467",26,27,0.120861982915812,-1,1,1,1,1,3270,6
"1468",26,28,0.132375669495269,-1,3,1,0,-1,4262,5
"1469",26,29,0.1519875107919,-1,2,0,0,1,1596,6
"1470",26,30,0.127990913518463,1,3,0,0,1,1209,7
"1471",26,31,0.110389509217717,NA,1,NA,NA,NA,NA,7
"1472",26,32,0.108061713170288,-1,2,1,0,-1,1804,6
"1473",26,33,0.158480425237102,-1,1,1,1,1,1053,7
"1474",26,34,0.218136321040045,1,2,1,0,-1,1427,6
"1475",26,35,0.274879590622762,-1,3,0,0,1,3139,7
"1476",26,36,0.320048599883722,1,2,0,0,1,1449,8
"1477",26,37,0.413679375504308,1,1,1,1,1,1615,9
"1478",26,38,0.487757448511153,-1,3,0,0,1,1361,10
"1479",26,39,0.594092626290422,1,1,1,1,1,1270,11
"1480",26,40,0.586863968658701,-1,3,0,0,1,1070,12
"1481",26,41,0.691122220678411,1,2,1,1,1,1055,13
"1482",26,42,0.83486733820262,1,3,0,0,1,866,14
"1483",26,43,0.801866540728334,-1,1,0,1,-1,1166,13
"1484",26,44,0.887361012413834,1,3,1,0,-1,893,12
"1485",26,45,0.781020494322184,1,2,0,1,-1,1214,11
"1486",26,46,0.808541314403458,-1,1,1,1,1,1273,12
"1487",26,47,0.733721040476155,1,2,1,0,-1,1129,11
"1488",26,48,0.770637348620388,1,1,0,1,-1,2653,10
"1489",26,49,0.679998450160339,NA,3,NA,NA,NA,NA,10
"1490",26,50,0.749234254151811,-1,1,1,1,1,1297,11
"1491",26,51,0.802561734852486,1,2,1,0,-1,922,10
"1492",26,52,0.8641621742545,1,3,0,0,1,860,11
"1493",26,53,0.751116934195447,1,2,1,0,-1,1238,10
"1494",26,54,0.764354145379078,1,3,0,0,1,3825,11
"1495",26,55,0.721506891322327,1,1,1,1,1,1685,12
"1496",26,56,0.641904461599074,-1,3,1,0,-1,766,11
"1497",26,57,0.638768951167107,1,2,0,1,-1,1238,10
"1498",26,58,0.640283908591825,1,1,1,1,1,765,11
"1499",26,59,0.660943440788409,1,2,1,1,1,996,12
"1500",26,60,0.56414002263259,1,1,0,1,-1,786,11
"1501",27,1,0.405726225255057,-1,2,1,0,-1,4622,-17
"1502",27,2,0.481009251479707,-1,3,0,0,1,1492,-16
"1503",27,3,0.430619738198094,-1,1,1,1,1,1292,-15
"1504",27,4,0.328351434523396,-1,3,1,0,-1,1825,-16
"1505",27,5,0.37909234249887,1,2,1,0,-1,2865,-17
"1506",27,6,0.32164554890389,1,1,0,1,-1,2282,-18
"1507",27,7,0.255178960758226,-1,2,1,1,1,2390,-17
"1508",27,8,0.273091232786376,-1,1,1,1,1,2125,-16
"1509",27,9,0.447650345635491,-1,3,0,1,-1,1592,-17
"1510",27,10,0.404312929496554,-1,1,1,0,-1,1762,-18
"1511",27,11,0.472186638053535,1,2,0,1,-1,2449,-19
"1512",27,12,0.522483600097598,-1,3,1,1,1,1567,-18
"1513",27,13,0.381409776608163,1,2,1,0,-1,1959,-19
"1514",27,14,0.515410170039686,-1,3,0,0,1,2036,-18
"1515",27,15,0.527657862928399,1,1,1,1,1,1371,-17
"1516",27,16,0.552371737966961,1,3,1,1,1,2037,-16
"1517",27,17,0.491113300345362,1,2,0,0,1,2061,-15
"1518",27,18,0.523422425768468,-1,1,1,1,1,838,-14
"1519",27,19,0.578257615612449,1,2,1,1,1,2017,-13
"1520",27,20,0.681364039504812,1,1,1,0,-1,2794,-14
"1521",27,21,0.742002036454666,1,3,0,1,-1,3082,-15
"1522",27,22,0.760545327639474,1,1,1,1,1,1196,-14
"1523",27,23,0.745099770217463,1,2,1,0,-1,2681,-15
"1524",27,24,0.661259137485606,1,1,0,1,-1,999,-16
"1525",27,25,0.703994089863443,1,3,0,0,1,1106,-15
"1526",27,26,0.65190389477482,1,2,1,1,1,2721,-14
"1527",27,27,0.576431846911071,1,3,0,0,1,1632,-13
"1528",27,28,0.582112889837345,1,2,0,0,1,3458,-12
"1529",27,29,0.535574154056097,1,1,1,1,1,743,-11
"1530",27,30,0.598627579420172,1,2,1,0,-1,2294,-12
"1531",27,31,0.600343548089189,1,3,0,0,1,502,-11
"1532",27,32,0.645714443153249,1,1,1,1,1,1504,-10
"1533",27,33,0.607109585170995,-1,3,0,0,1,1396,-9
"1534",27,34,0.694447282542299,1,1,1,1,1,1218,-8
"1535",27,35,0.757666521154294,1,2,1,1,1,1670,-7
"1536",27,36,0.751199258889148,1,1,1,1,1,933,-6
"1537",27,37,0.768041184651845,1,3,1,0,-1,612,-7
"1538",27,38,0.656369199536876,1,2,0,0,1,2886,-6
"1539",27,39,0.635725954769507,-1,3,0,0,1,870,-5
"1540",27,40,0.70125325106899,1,2,0,1,-1,2048,-6
"1541",27,41,0.704046304968184,1,1,1,1,1,2123,-5
"1542",27,42,0.61494475569298,1,2,0,1,-1,2034,-6
"1543",27,43,0.515834279685581,-1,3,0,0,1,832,-5
"1544",27,44,0.508096117984485,-1,2,0,1,-1,2714,-6
"1545",27,45,0.556518412530254,-1,1,0,1,-1,2116,-7
"1546",27,46,0.452319799847277,1,3,0,0,1,790,-6
"1547",27,47,0.40232292977651,1,1,0,1,-1,1309,-7
"1548",27,48,0.472534538958308,1,3,0,0,1,1595,-6
"1549",27,49,0.336447181352176,-1,2,0,1,-1,631,-7
"1550",27,50,0.203171422562458,-1,3,0,0,1,1939,-6
"1551",27,51,0.255642760545928,-1,1,1,1,1,626,-5
"1552",27,52,0.155397449660209,-1,2,0,1,-1,2315,-6
"1553",27,53,0.147203556252093,-1,1,1,1,1,1391,-5
"1554",27,54,0.175174040086093,-1,2,1,0,-1,1105,-6
"1555",27,55,0.347312451262418,1,3,1,0,-1,856,-7
"1556",27,56,0.459044758063464,-1,2,0,1,-1,1572,-8
"1557",27,57,0.471404413012221,-1,1,0,1,-1,1451,-9
"1558",27,58,0.410438089299237,1,3,0,1,-1,1343,-10
"1559",27,59,0.468078830123055,-1,1,1,0,-1,835,-11
"1560",27,60,0.461554470697077,1,3,0,1,-1,2410,-12
"1561",28,1,0.593297752272338,NA,3,NA,NA,NA,NA,1
"1562",28,2,0.613529308562079,-1,1,1,1,1,3017,2
"1563",28,3,0.471264690377088,1,2,0,0,1,1220,3
"1564",28,4,0.403862588875445,1,1,1,0,-1,1937,2
"1565",28,5,0.418039294456576,-1,3,0,1,-1,1015,1
"1566",28,6,0.404772986858835,1,2,0,1,-1,2473,0
"1567",28,7,0.413064132470461,-1,3,0,1,-1,1843,-1
"1568",28,8,0.394363480107081,1,2,0,0,1,1533,0
"1569",28,9,0.517323335784613,-1,1,1,0,-1,1092,-1
"1570",28,10,0.468076517764882,1,2,1,1,1,1236,0
"1571",28,11,0.488693273220188,-1,3,0,0,1,1579,1
"1572",28,12,0.589296844602042,-1,1,1,1,1,1984,2
"1573",28,13,0.486095531617714,1,3,0,0,1,907,3
"1574",28,14,0.466296705542334,-1,1,1,0,-1,288,2
"1575",28,15,0.465702545229155,-1,2,1,1,1,358,3
"1576",28,16,0.455221700221338,1,1,1,1,1,349,4
"1577",28,17,0.354884314436612,1,3,0,1,-1,668,3
"1578",28,18,0.416983365976991,-1,2,1,1,1,163,4
"1579",28,19,0.336572965015091,1,3,1,0,-1,354,3
"1580",28,20,0.293849571807765,1,2,1,1,1,576,4
"1581",28,21,0.276133543730567,-1,2,1,1,1,736,5
"1582",28,22,0.308442973462996,1,3,0,1,-1,2359,4
"1583",28,23,0.255996416715589,-1,1,1,0,-1,2720,3
"1584",28,24,0.370245450808713,-1,3,0,1,-1,1845,2
"1585",28,25,0.387030980259461,-1,2,0,0,1,982,3
"1586",28,26,0.426576571819302,-1,1,1,0,-1,720,2
"1587",28,27,0.347224531700299,1,2,1,1,1,1107,3
"1588",28,28,0.232546111362304,-1,1,0,0,1,1968,4
"1589",28,29,0.156289060696841,-1,3,0,0,1,1281,5
"1590",28,30,0.119294594042603,-1,1,0,0,1,1171,6
"1591",28,31,0.392993734444528,1,2,1,1,1,890,7
"1592",28,32,0.390266636961537,1,3,1,0,-1,909,6
"1593",28,33,0.360146399191919,-1,2,0,1,-1,1093,5
"1594",28,34,0.438146464868225,1,3,0,0,1,547,6
"1595",28,35,0.412269150553668,1,1,1,1,1,828,7
"1596",28,36,0.344275780670382,1,3,0,0,1,514,8
"1597",28,37,0.44408046616649,1,2,0,1,-1,1499,7
"1598",28,38,0.392161717043754,1,1,0,0,1,667,8
"1599",28,39,0.411543057551366,-1,2,0,1,-1,3189,7
"1600",28,40,0.52703302098854,1,1,1,0,-1,360,6
"1601",28,41,0.558893461890117,1,1,1,1,1,432,7
"1602",28,42,0.506878909647228,1,2,1,0,-1,674,6
"1603",28,43,0.497333435935327,1,3,0,1,-1,74,5
"1604",28,44,0.472155297407,-1,2,0,0,1,446,6
"1605",28,45,0.462837957908557,-1,1,1,0,-1,833,5
"1606",28,46,0.509681020622291,-1,3,0,0,1,1047,6
"1607",28,47,0.647435426296901,1,1,1,1,1,547,7
"1608",28,48,0.586704345243469,-1,3,1,0,-1,299,6
"1609",28,49,0.699904771181181,1,2,0,1,-1,771,5
"1610",28,50,0.723648156785462,-1,3,1,1,1,891,6
"1611",28,51,0.752790845022333,1,1,0,0,1,859,7
"1612",28,52,0.753138700495678,1,2,1,0,-1,304,6
"1613",28,53,0.864340064977721,-1,1,0,1,-1,357,5
"1614",28,54,0.87170745326979,1,2,0,1,-1,409,4
"1615",28,55,0.791105289399592,1,3,0,1,-1,160,3
"1616",28,56,0.882163839551031,1,2,1,1,1,2126,4
"1617",28,57,0.800848127926772,1,1,1,1,1,1921,5
"1618",28,58,0.694196132490102,1,3,1,1,1,921,6
"1619",28,59,0.690337580595625,1,1,1,1,1,1096,7
"1620",28,60,0.685851252071899,-1,3,0,1,-1,1268,6
"1621",29,1,0.513068448286504,-1,3,0,0,1,1217,-2
"1622",29,2,0.523984871754528,-1,1,0,1,-1,1087,-3
"1623",29,3,0.606654652827979,1,2,0,1,-1,1615,-4
"1624",29,4,0.602412782680444,1,1,1,1,1,1081,-3
"1625",29,5,0.487385673268205,1,3,0,0,1,1015,-2
"1626",29,6,0.415297176757216,-1,2,0,1,-1,2057,-3
"1627",29,7,0.497276251594906,-1,3,1,0,-1,2407,-4
"1628",29,8,0.508647556053145,1,2,1,0,-1,3760,-5
"1629",29,9,0.44693907780476,1,1,1,1,1,880,-4
"1630",29,10,0.557605497879998,-1,2,0,1,-1,1128,-5
"1631",29,11,0.644541648365299,-1,3,0,0,1,855,-4
"1632",29,12,0.74521836022813,1,1,1,1,1,1233,-3
"1633",29,13,0.752043515060852,1,3,0,0,1,1119,-2
"1634",29,14,0.719110611084887,1,1,0,1,-1,887,-3
"1635",29,15,0.856459902749333,1,2,1,1,1,1065,-2
"1636",29,16,0.866445176008389,1,1,1,1,1,919,-1
"1637",29,17,0.746714837712565,-1,3,0,0,1,896,0
"1638",29,18,0.771049626779503,1,2,1,1,1,1576,1
"1639",29,19,0.70159628061698,1,3,0,0,1,848,2
"1640",29,20,0.509517704807633,-1,2,0,0,1,1647,3
"1641",29,21,0.457251976791413,-1,2,1,1,1,1624,4
"1642",29,22,0.417997464054135,-1,3,0,0,1,943,5
"1643",29,23,0.427978969403979,-1,1,1,1,1,1168,6
"1644",29,24,0.396673796511066,-1,3,1,0,-1,961,5
"1645",29,25,0.343140788656963,-1,2,1,0,-1,2031,4
"1646",29,26,0.252388969153146,1,1,1,1,1,697,5
"1647",29,27,0.283270439181137,-1,2,1,1,1,895,6
"1648",29,28,0.171971414913712,-1,1,0,1,-1,936,5
"1649",29,29,0.176181784345168,-1,3,0,0,1,840,6
"1650",29,30,0.196362027468643,-1,1,1,1,1,936,7
"1651",29,31,0.2390180518661,-1,2,1,0,-1,736,6
"1652",29,32,0.384834762768778,-1,3,0,0,1,1440,7
"1653",29,33,0.361824153657049,-1,2,0,1,-1,2424,6
"1654",29,34,0.437947629644884,1,3,0,0,1,1023,7
"1655",29,35,0.512225401511464,1,1,1,1,1,912,8
"1656",29,36,0.589916244545907,-1,3,0,0,1,992,9
"1657",29,37,0.523528028731353,-1,2,0,1,-1,2288,8
"1658",29,38,0.540331062482601,1,1,1,1,1,919,9
"1659",29,39,0.621445551024997,-1,2,1,0,-1,1240,8
"1660",29,40,0.718759552708655,1,1,0,1,-1,976,7
"1661",29,41,0.7184912733409,1,1,1,1,1,1208,8
"1662",29,42,0.754839132208179,1,2,0,0,1,1896,9
"1663",29,43,0.748830243981828,1,3,0,0,1,1295,10
"1664",29,44,0.80314984575903,-1,2,1,1,1,1457,11
"1665",29,45,0.574851822025449,1,1,1,1,1,896,12
"1666",29,46,0.447826575006554,-1,3,1,0,-1,863,11
"1667",29,47,0.410625250208912,-1,1,1,1,1,809,12
"1668",29,48,0.540974625933814,-1,3,1,0,-1,871,11
"1669",29,49,0.439839305396561,-1,2,0,0,1,1400,12
"1670",29,50,0.516985008353837,1,3,0,0,1,1385,13
"1671",29,51,0.400760931783193,-1,1,1,1,1,848,14
"1672",29,52,0.342494090513449,-1,2,0,1,-1,1279,13
"1673",29,53,0.288930870311065,-1,1,0,1,-1,1432,12
"1674",29,54,0.294640985002595,1,2,0,1,-1,2367,11
"1675",29,55,0.302433366535096,-1,3,1,0,-1,985,10
"1676",29,56,0.254198342094233,-1,2,1,0,-1,1559,9
"1677",29,57,0.285368806326668,1,1,1,1,1,719,10
"1678",29,58,0.498892105401096,1,3,0,0,1,905,11
"1679",29,59,0.485924458596758,-1,1,1,1,1,895,12
"1680",29,60,0.450440585599863,-1,3,0,0,1,849,13
"1681",30,1,0.527512470213696,-1,2,0,1,-1,1167,3
"1682",30,2,0.442667267530846,1,3,0,0,1,324,4
"1683",30,3,0.342362252891563,-1,1,0,0,1,1075,5
"1684",30,4,0.395741841818913,1,3,0,1,-1,1341,4
"1685",30,5,0.362679853561584,-1,2,1,1,1,2469,5
"1686",30,6,0.381491452440098,-1,1,1,1,1,634,6
"1687",30,7,0.34118065873377,1,2,1,1,1,1205,7
"1688",30,8,0.312738967100791,-1,1,1,1,1,645,8
"1689",30,9,0.253778573992257,-1,3,1,0,-1,988,7
"1690",30,10,0.267382332724431,-1,1,1,1,1,1388,8
"1691",30,11,0.31052481232525,-1,2,0,1,-1,1330,7
"1692",30,12,0.184070807928129,-1,3,0,0,1,902,8
"1693",30,13,0.230783008200355,-1,2,0,1,-1,1742,7
"1694",30,14,0.134240491971365,-1,3,1,0,-1,772,6
"1695",30,15,0.149246902936237,-1,1,1,1,1,910,7
"1696",30,16,0.159445155880622,-1,3,0,0,1,1095,8
"1697",30,17,0.208354787604639,-1,2,1,1,1,892,9
"1698",30,18,0.148426608340922,-1,1,1,1,1,688,10
"1699",30,19,0.248561025741493,-1,2,1,1,1,738,11
"1700",30,20,0.301104547200395,-1,1,0,1,-1,726,10
"1701",30,21,0.360219874134462,-1,1,1,1,1,2102,11
"1702",30,22,0.469059591395345,-1,2,0,1,-1,842,10
"1703",30,23,0.480864056942428,-1,3,0,1,-1,997,9
"1704",30,24,0.597579617439285,1,2,1,1,1,1012,10
"1705",30,25,0.527235674438075,1,1,1,1,1,1027,11
"1706",30,26,0.477065508121712,-1,3,1,0,-1,1215,10
"1707",30,27,0.417330501939457,-1,1,1,1,1,653,11
"1708",30,28,0.449355929501768,1,3,0,0,1,935,12
"1709",30,29,0.504057420055682,-1,2,0,1,-1,615,11
"1710",30,30,0.416858560675555,-1,3,0,0,1,770,12
"1711",30,31,0.423797437369546,1,1,1,1,1,766,13
"1712",30,32,0.360804076916634,-1,2,0,1,-1,695,12
"1713",30,33,0.339799314829581,-1,1,1,1,1,702,13
"1714",30,34,0.390281016671317,-1,2,1,1,1,645,14
"1715",30,35,0.432313409060732,-1,3,0,0,1,927,15
"1716",30,36,0.454839103809271,-1,2,0,1,-1,753,14
"1717",30,37,0.401587601180867,1,1,1,0,-1,513,13
"1718",30,38,0.490410506140491,-1,3,0,0,1,1196,14
"1719",30,39,0.611011994657139,1,1,0,1,-1,496,13
"1720",30,40,0.677905076626863,-1,3,0,0,1,779,14
"1721",30,41,0.790253262617135,1,3,0,0,1,1061,15
"1722",30,42,0.824852319862215,1,1,1,1,1,604,16
"1723",30,43,0.884259994470853,1,2,0,1,-1,838,15
"1724",30,44,0.798961144370885,1,1,1,1,1,2165,16
"1725",30,45,0.812849768361188,1,3,1,0,-1,1109,15
"1726",30,46,0.741274573219794,1,2,1,1,1,907,16
"1727",30,47,0.702551256479237,1,3,1,0,-1,911,15
"1728",30,48,0.7898514960042,1,2,1,1,1,649,16
"1729",30,49,0.736954499383631,-1,1,0,1,-1,579,15
"1730",30,50,0.762504705955096,-1,2,0,1,-1,867,14
"1731",30,51,0.632514149393563,-1,3,0,0,1,915,15
"1732",30,52,0.715772152128044,-1,1,1,1,1,603,16
"1733",30,53,0.711789579108958,-1,3,0,0,1,854,17
"1734",30,54,0.774561948814731,1,1,1,1,1,749,18
"1735",30,55,0.695165778922086,1,2,1,1,1,560,19
"1736",30,56,0.649378949921275,1,1,0,1,-1,1333,18
"1737",30,57,0.719790519218273,-1,3,0,0,1,924,19
"1738",30,58,0.591484410058776,1,2,1,1,1,826,20
"1739",30,59,0.606053932090521,-1,3,0,0,1,590,21
"1740",30,60,0.682542350246493,1,2,0,1,-1,716,20
"1741",31,1,0.464113133400679,-1,2,1,1,1,2129,-3
"1742",31,2,0.4448314905364,-1,3,0,0,1,774,-2
"1743",31,3,0.465357345101107,1,1,0,1,-1,910,-3
"1744",31,4,0.390150533206225,-1,3,0,0,1,1054,-2
"1745",31,5,0.364519960888161,-1,2,1,1,1,1215,-1
"1746",31,6,0.22203373348074,-1,1,1,1,1,862,0
"1747",31,7,0.207854708470879,-1,2,1,1,1,959,1
"1748",31,8,0.197155623444553,-1,1,1,1,1,1118,2
"1749",31,9,0.199735247300437,-1,3,0,0,1,799,3
"1750",31,10,0.110838514869011,-1,1,1,1,1,973,4
"1751",31,11,0.194590947300224,-1,2,1,1,1,930,5
"1752",31,12,0.261903237168957,-1,3,0,0,1,717,6
"1753",31,13,0.247798094940478,1,2,1,1,1,944,7
"1754",31,14,0.148991429115875,-1,3,0,0,1,911,8
"1755",31,15,0.236802426760766,-1,1,1,1,1,927,9
"1756",31,16,0.245930676473185,-1,3,1,0,-1,967,8
"1757",31,17,0.268948916330551,1,2,0,1,-1,735,7
"1758",31,18,0.211474495408234,-1,1,1,1,1,1087,8
"1759",31,19,0.182840145863386,-1,2,1,1,1,983,9
"1760",31,20,0.22452236429536,-1,1,1,1,1,950,10
"1761",31,21,0.331472898327587,-1,1,1,1,1,959,11
"1762",31,22,0.338531469108898,-1,2,1,1,1,975,12
"1763",31,23,0.345328457472186,-1,3,1,0,-1,718,11
"1764",31,24,0.3920085311163,-1,2,0,1,-1,743,10
"1765",31,25,0.400506823151767,1,1,1,1,1,750,11
"1766",31,26,0.253306808864977,1,3,0,0,1,1437,12
"1767",31,27,0.295158995796767,1,1,0,1,-1,840,11
"1768",31,28,0.513720114616331,-1,3,0,0,1,1193,12
"1769",31,29,0.623437992223581,-1,2,1,1,1,743,13
"1770",31,30,0.598124889046694,-1,3,0,0,1,870,14
"1771",31,31,0.657964546163294,1,1,1,1,1,1184,15
"1772",31,32,0.594149897412529,-1,2,0,1,-1,935,14
"1773",31,33,0.622508722835421,-1,1,0,1,-1,798,13
"1774",31,34,0.542246320876768,1,2,1,1,1,743,14
"1775",31,35,0.530483001147217,1,3,0,0,1,751,15
"1776",31,36,0.633122182058209,1,2,0,1,-1,782,14
"1777",31,37,0.632293050703756,1,1,0,0,1,1070,15
"1778",31,38,0.620608738498345,1,3,1,0,-1,855,14
"1779",31,39,0.529980268343798,1,1,1,1,1,734,15
"1780",31,40,0.57934768264235,1,3,0,0,1,920,16
"1781",31,41,0.584379804115832,-1,3,0,0,1,927,17
"1782",31,42,0.56547253886549,-1,1,1,1,1,982,18
"1783",31,43,0.514791934187277,-1,2,0,1,-1,583,17
"1784",31,44,0.609483817562015,1,1,1,1,1,847,18
"1785",31,45,0.536308784716847,1,3,1,0,-1,792,17
"1786",31,46,0.557638694615584,-1,2,0,1,-1,758,16
"1787",31,47,0.541871310614496,-1,3,0,0,1,791,17
"1788",31,48,0.558545051750248,-1,2,0,1,-1,799,16
"1789",31,49,0.588210836948332,1,1,1,1,1,1086,17
"1790",31,50,0.641580809217912,-1,2,1,1,1,824,18
"1791",31,51,0.64534683521266,1,3,1,0,-1,727,17
"1792",31,52,0.661611373169193,-1,1,0,1,-1,759,16
"1793",31,53,0.591125226467062,NA,3,NA,NA,NA,NA,16
"1794",31,54,0.714766006867746,1,1,1,1,1,1479,17
"1795",31,55,0.798655979114714,1,2,0,1,-1,935,16
"1796",31,56,0.795784879661801,-1,1,1,1,1,847,17
"1797",31,57,0.78704578892219,1,3,0,0,1,864,18
"1798",31,58,0.660028646857582,1,2,0,1,-1,760,17
"1799",31,59,0.793825325946732,1,3,0,0,1,711,18
"1800",31,60,0.839778596282719,1,2,0,1,-1,791,17
"1801",32,1,0.418549079721231,1,2,0,1,-1,1444,1
"1802",32,2,0.396837897814427,1,3,0,1,-1,1252,0
"1803",32,3,0.408658970148164,1,1,0,1,-1,1134,-1
"1804",32,4,0.468628594536797,-1,3,1,0,-1,940,-2
"1805",32,5,0.493271673776402,-1,2,1,1,1,2862,-1
"1806",32,6,0.550484620929637,1,1,1,1,1,871,0
"1807",32,7,0.627941721758974,1,2,0,1,-1,879,-1
"1808",32,8,0.619010400556087,-1,1,1,1,1,659,0
"1809",32,9,0.575686407017276,-1,3,0,0,1,950,1
"1810",32,10,0.59098355403198,1,1,1,1,1,762,2
"1811",32,11,0.503555023224931,1,2,0,1,-1,1707,1
"1812",32,12,0.382424796914891,-1,3,0,0,1,802,2
"1813",32,13,0.355643977482565,-1,2,0,0,1,3236,3
"1814",32,14,0.307762216898761,-1,3,0,0,1,901,4
"1815",32,15,0.331775239424733,1,1,1,1,1,926,5
"1816",32,16,0.382680275387111,-1,3,0,0,1,780,6
"1817",32,17,0.424651300808349,-1,2,1,0,-1,976,5
"1818",32,18,0.364763454738124,-1,1,0,1,-1,1047,4
"1819",32,19,0.382069773883095,1,2,1,0,-1,1314,3
"1820",32,20,0.367852304149502,1,1,0,1,-1,835,2
"1821",32,21,0.426557582041787,-1,3,1,0,-1,688,1
"1822",32,22,0.398388779106464,-1,1,1,1,1,678,2
"1823",32,23,0.369114318431489,-1,2,1,1,1,1458,3
"1824",32,24,0.249712805284658,-1,1,1,1,1,751,4
"1825",32,25,0.233828854034074,-1,3,0,0,1,932,5
"1826",32,26,0.24637886060274,-1,2,1,1,1,1366,6
"1827",32,27,0.208934650937623,-1,3,0,0,1,596,7
"1828",32,28,0.31526117672822,-1,2,1,1,1,3222,8
"1829",32,29,0.361770581989598,1,1,1,1,1,740,9
"1830",32,30,0.321540827958467,-1,2,0,1,-1,1265,8
"1831",32,31,0.31169288389799,-1,3,0,0,1,782,9
"1832",32,32,0.29992899757917,-1,1,1,1,1,785,10
"1833",32,33,0.37496120785943,-1,3,0,0,1,833,11
"1834",32,34,0.36422335787511,-1,1,0,1,-1,856,10
"1835",32,35,0.378377377411951,1,2,0,1,-1,1112,9
"1836",32,36,0.404153981970144,-1,1,1,1,1,1075,10
"1837",32,37,0.441992840487117,1,3,0,0,1,775,11
"1838",32,38,0.528161667162625,-1,2,0,1,-1,1555,10
"1839",32,39,0.588649020857908,-1,3,0,0,1,831,11
"1840",32,40,0.66932855801248,1,2,1,1,1,986,12
"1841",32,41,0.856219306866143,-1,1,1,1,1,714,13
"1842",32,42,0.83434887855225,1,2,0,1,-1,947,12
"1843",32,43,0.773748219216605,1,3,1,0,-1,814,11
"1844",32,44,0.780992299540408,1,2,0,1,-1,883,10
"1845",32,45,0.897653140892199,1,1,1,1,1,365,11
"1846",32,46,0.850543568323367,1,3,1,0,-1,679,10
"1847",32,47,0.867111643169292,-1,1,1,1,1,650,11
"1848",32,48,0.874774450822586,1,3,0,0,1,1183,12
"1849",32,49,0.645071398797576,-1,2,0,1,-1,955,11
"1850",32,50,0.495848189763494,1,3,1,0,-1,934,10
"1851",32,51,0.618977920094933,1,1,1,1,1,1053,11
"1852",32,52,0.584919257114334,-1,2,1,0,-1,1398,10
"1853",32,53,0.506316248983136,-1,1,0,0,1,608,11
"1854",32,54,0.475768263427386,-1,2,1,0,-1,1963,10
"1855",32,55,0.479856860009956,1,3,0,1,-1,1659,9
"1856",32,56,0.529241955368068,1,2,1,1,1,1188,10
"1857",32,57,0.469052296595597,-1,1,1,1,1,733,11
"1858",32,58,0.503983021764957,1,3,0,0,1,997,12
"1859",32,59,0.50673936990089,-1,1,1,1,1,850,13
"1860",32,60,0.596224091653698,1,3,0,0,1,754,14
"1861",33,1,0.47241354176984,-1,3,0,0,1,1752,1
"1862",33,2,0.478298104461101,-1,1,1,1,1,1567,2
"1863",33,3,0.370786218356232,1,2,0,1,-1,1222,1
"1864",33,4,0.392583433830855,-1,1,1,1,1,1110,2
"1865",33,5,0.387934631951444,-1,3,0,0,1,702,3
"1866",33,6,0.409361021719668,-1,2,1,0,-1,990,2
"1867",33,7,0.367507752993346,-1,3,1,0,-1,1287,1
"1868",33,8,0.2990607400667,1,2,1,1,1,1911,2
"1869",33,9,0.320808316204854,-1,1,0,1,-1,836,1
"1870",33,10,0.332963886406685,-1,2,1,0,-1,1259,0
"1871",33,11,0.394505938693861,-1,3,0,0,1,1517,1
"1872",33,12,0.389812326609703,-1,1,1,1,1,814,2
"1873",33,13,0.464088181747057,1,3,0,0,1,1022,3
"1874",33,14,0.504602004283705,-1,1,1,1,1,958,4
"1875",33,15,0.520606143008522,-1,2,0,1,-1,964,3
"1876",33,16,0.481328779614107,1,1,0,1,-1,954,2
"1877",33,17,0.507342926111844,1,3,0,0,1,1191,3
"1878",33,18,0.554669427395748,1,2,1,0,-1,703,2
"1879",33,19,0.533075442808423,-1,3,0,0,1,1062,3
"1880",33,20,0.420259525937101,-1,2,0,0,1,687,4
"1881",33,21,0.487623312291497,-1,2,1,0,-1,1088,3
"1882",33,22,0.605232687706235,-1,3,0,0,1,906,4
"1883",33,23,0.646161717568403,1,1,1,1,1,747,5
"1884",33,24,0.637929927039641,1,3,0,0,1,854,6
"1885",33,25,0.700103215308948,1,2,0,0,1,670,7
"1886",33,26,0.651315190143983,-1,1,1,1,1,943,8
"1887",33,27,0.726610005951846,1,2,0,1,-1,759,7
"1888",33,28,0.741731866179179,1,1,1,1,1,918,8
"1889",33,29,0.802128784159231,1,3,1,0,-1,703,7
"1890",33,30,0.696420257633733,1,1,1,1,1,1006,8
"1891",33,31,0.708949831542881,1,2,1,1,1,750,9
"1892",33,32,0.749207227021529,1,3,1,0,-1,814,8
"1893",33,33,0.739309208706186,1,2,1,1,1,1478,9
"1894",33,34,0.682786231746308,1,3,0,0,1,951,10
"1895",33,35,0.786784173423103,1,1,0,1,-1,798,9
"1896",33,36,0.815675554429018,1,3,0,0,1,975,10
"1897",33,37,0.848815018114231,1,2,0,0,1,1054,11
"1898",33,38,0.805712309013776,1,1,1,1,1,807,12
"1899",33,39,0.859199100397394,-1,2,1,1,1,1253,13
"1900",33,40,0.711878472858382,1,1,0,1,-1,927,12
"1901",33,41,0.719180941177616,1,1,1,1,1,783,13
"1902",33,42,0.620921484207755,1,2,0,1,-1,1174,12
"1903",33,43,0.548117366559554,1,3,0,0,1,815,13
"1904",33,44,0.542192014426797,1,2,0,1,-1,678,12
"1905",33,45,0.479374491688742,-1,1,1,1,1,695,13
"1906",33,46,0.403785885453706,-1,3,0,0,1,631,14
"1907",33,47,0.398558255407149,-1,1,0,1,-1,807,13
"1908",33,48,0.336530991996815,-1,3,0,0,1,846,14
"1909",33,49,0.355016466142225,-1,2,0,1,-1,702,13
"1910",33,50,0.344276254395496,-1,3,1,0,-1,943,12
"1911",33,51,0.269283107263556,-1,1,1,1,1,854,13
"1912",33,52,0.298668121591459,-1,2,0,0,1,694,14
"1913",33,53,0.363331661180273,1,1,1,1,1,760,15
"1914",33,54,0.367440212651118,-1,2,1,0,-1,550,14
"1915",33,55,0.326007331673086,1,3,0,0,1,788,15
"1916",33,56,0.423968717649644,-1,2,1,0,-1,546,14
"1917",33,57,0.399914092400485,1,1,1,1,1,792,15
"1918",33,58,0.417337612852166,1,3,0,0,1,871,16
"1919",33,59,0.4858842113132,-1,1,1,1,1,895,17
"1920",33,60,0.469130634530323,-1,3,1,0,-1,855,16
"1921",34,1,0.435411697486416,-1,2,0,1,-1,3088,2
"1922",34,2,0.581647493894967,-1,3,0,0,1,1383,3
"1923",34,3,0.543332656481324,1,1,1,1,1,1160,4
"1924",34,4,0.545390067073385,-1,3,0,0,1,808,5
"1925",34,5,0.594898713592246,1,2,0,1,-1,2048,4
"1926",34,6,0.564436096708788,1,1,1,1,1,1945,5
"1927",34,7,0.659172264337153,-1,2,1,1,1,2232,6
"1928",34,8,0.724237387971588,-1,1,1,1,1,881,7
"1929",34,9,0.747083494454695,1,3,0,0,1,1664,8
"1930",34,10,0.666891575476122,1,1,1,1,1,4050,9
"1931",34,11,0.69466685210289,1,2,1,1,1,1590,10
"1932",34,12,0.770349238551656,1,3,1,0,-1,1057,9
"1933",34,13,0.764224735510852,-1,2,1,0,-1,2369,8
"1934",34,14,0.843161948826252,1,3,0,0,1,1439,9
"1935",34,15,0.848115306325913,1,1,0,1,-1,705,8
"1936",34,16,0.873782328641878,1,3,0,0,1,1439,9
"1937",34,17,0.629780102678085,1,2,1,1,1,1256,10
"1938",34,18,0.649042109254956,1,1,1,1,1,1127,11
"1939",34,19,0.653610193244583,1,2,0,1,-1,2135,10
"1940",34,20,0.64047590346089,-1,1,1,1,1,833,11
"1941",34,21,0.625142009361376,1,1,0,1,-1,1560,10
"1942",34,22,0.493709060590207,1,2,1,0,-1,3532,9
"1943",34,23,0.490839261246955,1,3,1,0,-1,1512,8
"1944",34,24,0.348887828936351,NA,2,NA,NA,NA,NA,8
"1945",34,25,0.445408256349309,-1,1,1,1,1,4113,9
"1946",34,26,0.474551149386241,1,3,1,0,-1,1729,8
"1947",34,27,0.515195271740358,1,1,1,1,1,1248,9
"1948",34,28,0.362951750758926,-1,3,0,0,1,1280,10
"1949",34,29,0.290511581869249,-1,2,1,1,1,816,11
"1950",34,30,0.315862107141147,1,3,1,0,-1,864,10
"1951",34,31,0.302646744248139,1,1,1,1,1,689,11
"1952",34,32,0.279655970626649,-1,2,0,1,-1,2217,10
"1953",34,33,0.196151908281483,-1,1,0,1,-1,888,9
"1954",34,34,0.325631394328806,1,2,0,0,1,852,10
"1955",34,35,0.299126924079799,1,3,0,0,1,1072,11
"1956",34,36,0.277883824524383,-1,2,0,1,-1,2362,10
"1957",34,37,0.314245497544393,1,1,1,1,1,567,11
"1958",34,38,0.458662575882995,-1,3,0,0,1,3488,12
"1959",34,39,0.433905822579608,-1,1,1,1,1,743,13
"1960",34,40,0.393755507770461,1,3,0,0,1,1009,14
"1961",34,41,0.426788164213473,1,3,0,0,1,1352,15
"1962",34,42,0.56286453610382,-1,1,0,1,-1,873,14
"1963",34,43,0.475986276640876,1,2,0,1,-1,880,13
"1964",34,44,0.471750367006478,1,1,1,1,1,2417,14
"1965",34,45,0.475644575940561,1,3,0,0,1,1640,15
"1966",34,46,0.613460225186769,1,2,0,1,-1,2120,14
"1967",34,47,0.54915629648192,-1,3,0,0,1,832,15
"1968",34,48,0.528999634299737,-1,2,1,1,1,2561,16
"1969",34,49,0.542198199110611,1,1,1,1,1,704,17
"1970",34,50,0.5747164908838,1,2,1,1,1,1009,18
"1971",34,51,0.422931550341431,1,3,0,0,1,552,19
"1972",34,52,0.486877891661647,1,1,1,1,1,1481,20
"1973",34,53,0.372046615756108,1,3,0,0,1,2243,21
"1974",34,54,0.475991490567839,1,1,1,1,1,4344,22
"1975",34,55,0.32668663137307,-1,2,1,1,1,1856,23
"1976",34,56,0.446927264482204,1,1,0,1,-1,1664,22
"1977",34,57,0.457483797090571,-1,3,1,0,-1,729,21
"1978",34,58,0.397930561372573,1,2,0,1,-1,2840,20
"1979",34,59,0.388066395813618,-1,3,0,0,1,3920,21
"1980",34,60,0.433977988885782,1,2,1,1,1,2497,22
"1981",35,1,0.475573049066588,1,1,0,1,-1,1870,-3
"1982",35,2,0.487047321305101,1,2,1,0,-1,663,-4
"1983",35,3,0.568533803218325,-1,3,0,0,1,376,-3
"1984",35,4,0.489098341357448,-1,2,1,0,-1,24,-4
"1985",35,5,0.425752195307904,1,1,1,1,1,439,-3
"1986",35,6,0.454342259285732,-1,3,0,0,1,495,-2
"1987",35,7,0.394205237883734,1,1,0,0,1,815,-1
"1988",35,8,0.509251134915949,-1,3,1,1,1,384,0
"1989",35,9,0.696114828785394,1,2,0,0,1,360,1
"1990",35,10,0.678405105619462,1,3,1,1,1,343,2
"1991",35,11,0.735942237148293,1,1,1,0,-1,559,1
"1992",35,12,0.752462283469444,1,2,1,1,1,1311,2
"1993",35,13,0.688524596638956,1,1,1,1,1,671,3
"1994",35,14,0.602862513316505,1,2,0,1,-1,488,2
"1995",35,15,0.518973092191848,-1,3,0,0,1,576,3
"1996",35,16,0.500222494960176,-1,2,1,0,-1,376,2
"1997",35,17,0.511272670919059,1,1,1,1,1,408,3
"1998",35,18,0.687251766111558,-1,3,0,1,-1,424,2
"1999",35,19,0.667010501134887,1,1,1,0,-1,552,1
"2000",35,20,0.70538285727096,-1,3,0,1,-1,535,0
"2001",35,21,0.779893809862927,1,2,0,1,-1,696,-1
"2002",35,22,0.697929825567571,1,3,0,1,-1,647,-2
"2003",35,23,0.643642698808738,1,1,1,0,-1,1648,-3
"2004",35,24,0.670606290113858,1,3,1,1,1,528,-2
"2005",35,25,0.605230283057958,-1,2,0,1,-1,464,-3
"2006",35,26,0.639606677357786,1,1,0,0,1,3616,-2
"2007",35,27,0.586779830577844,1,2,0,0,1,1008,-1
"2008",35,28,0.531305869582654,1,1,1,0,-1,376,-2
"2009",35,29,0.640486596981614,1,3,1,1,1,504,-1
"2010",35,30,0.638633040146317,-1,1,1,1,1,447,0
"2011",35,31,0.739207428746928,1,2,0,1,-1,184,-1
"2012",35,32,0.695330661662423,1,3,0,0,1,583,0
"2013",35,33,0.753706371464966,1,2,0,0,1,496,1
"2014",35,34,0.668922360422586,-1,3,0,0,1,559,2
"2015",35,35,0.659832585232631,1,1,1,1,1,264,3
"2016",35,36,0.659757321365577,1,3,0,1,-1,431,2
"2017",35,37,0.632905203835663,-1,2,0,0,1,512,3
"2018",35,38,0.664010427553217,-1,1,0,0,1,319,4
"2019",35,39,0.57915763667437,-1,2,0,0,1,142,5
"2020",35,40,0.593290596752637,1,1,1,1,1,144,6
"2021",35,41,0.564862703572241,-1,3,0,1,-1,191,5
"2022",35,42,0.480119298000262,1,1,0,0,1,344,6
"2023",35,43,0.394505591432749,1,2,1,0,-1,400,5
"2024",35,44,0.383087670760446,-1,1,1,1,1,561,6
"2025",35,45,0.244563919450994,-1,3,0,1,-1,7,5
"2026",35,46,0.289452559761244,1,2,1,1,1,487,6
"2027",35,47,0.245416391537148,-1,3,0,1,-1,175,5
"2028",35,48,0.321385180229173,1,2,1,1,1,913,6
"2029",35,49,0.270278444426332,1,1,1,1,1,1528,7
"2030",35,50,0.204255100506747,-1,2,0,1,-1,439,6
"2031",35,51,0.107073912405583,-1,3,0,1,-1,2311,5
"2032",35,52,0.107053087824638,-1,1,1,0,-1,233,4
"2033",35,53,0.121929270212561,-1,3,0,1,-1,384,3
"2034",35,54,0.128002552530637,1,1,1,1,1,464,4
"2035",35,55,0.121548452525938,-1,2,1,1,1,456,5
"2036",35,56,0.263728054510763,-1,1,1,1,1,385,6
"2037",35,57,0.239756802525362,-1,3,0,1,-1,824,5
"2038",35,58,0.262471822970142,1,2,1,1,1,3008,6
"2039",35,59,0.240744344349312,1,3,1,1,1,96,7
"2040",35,60,0.351876957568079,1,2,1,1,1,696,8
"2041",36,1,0.546654686354016,-1,2,0,0,1,3590,-3
"2042",36,2,0.584796673473562,-1,3,1,1,1,1171,-2
"2043",36,3,0.527468972953776,1,1,1,0,-1,2331,-3
"2044",36,4,0.571846652246507,-1,3,0,0,1,2744,-2
"2045",36,5,0.505746746769249,1,2,1,1,1,748,-1
"2046",36,6,0.669890713390185,1,1,1,0,-1,916,-2
"2047",36,7,0.766718313853098,1,2,1,1,1,1431,-1
"2048",36,8,0.746825140705738,1,1,1,1,1,1400,0
"2049",36,9,0.772629172475808,-1,3,0,0,1,1519,1
"2050",36,10,0.752256837601576,1,1,1,1,1,813,2
"2051",36,11,0.77458806395498,1,2,1,1,1,1190,3
"2052",36,12,0.758045230380965,-1,3,0,0,1,676,4
"2053",36,13,0.747322862076497,1,2,1,1,1,909,5
"2054",36,14,0.702931196599753,1,3,0,0,1,1142,6
"2055",36,15,0.614615881149763,1,1,1,1,1,1089,7
"2056",36,16,0.688040796315108,1,3,0,0,1,803,8
"2057",36,17,0.766768667914462,1,2,1,1,1,1180,9
"2058",36,18,0.855870284412232,1,1,0,1,-1,1013,8
"2059",36,19,0.842527091473148,-1,2,1,1,1,1220,9
"2060",36,20,0.753839976195409,1,1,0,1,-1,810,8
"2061",36,21,0.744755466004002,1,3,0,0,1,808,9
"2062",36,22,0.775744666053102,1,1,1,1,1,1057,10
"2063",36,23,0.822754373023041,1,2,0,1,-1,735,9
"2064",36,24,0.683242136451987,1,1,0,1,-1,866,8
"2065",36,25,0.724914969382137,1,3,1,0,-1,695,7
"2066",36,26,0.656117215931536,1,2,1,1,1,767,8
"2067",36,27,0.61157398804083,-1,3,1,0,-1,871,7
"2068",36,28,0.512798429607185,1,2,0,1,-1,929,6
"2069",36,29,0.516208125851904,-1,1,1,1,1,579,7
"2070",36,30,0.517581685722795,-1,2,1,1,1,1611,8
"2071",36,31,0.551245458279445,-1,3,0,0,1,964,9
"2072",36,32,0.567520681839223,1,1,1,1,1,880,10
"2073",36,33,0.545328436790351,1,3,0,0,1,782,11
"2074",36,34,0.500539146519806,1,1,1,1,1,741,12
"2075",36,35,0.318296756193228,-1,2,0,1,-1,1114,11
"2076",36,36,0.346113280160549,-1,1,0,1,-1,1022,10
"2077",36,37,0.240335717399305,-1,3,0,0,1,722,11
"2078",36,38,0.219733755519312,-1,2,0,1,-1,685,10
"2079",36,39,0.177338934044692,-1,3,1,0,-1,1069,9
"2080",36,40,0.103404453621843,-1,2,0,1,-1,674,8
"2081",36,41,0.167882420142037,-1,1,1,1,1,526,9
"2082",36,42,0.110496718232955,1,2,0,0,1,1096,10
"2083",36,43,0.249795264998647,-1,3,0,0,1,918,11
"2084",36,44,0.356993762868999,1,2,1,1,1,1080,12
"2085",36,45,0.277627305981868,-1,1,1,1,1,767,13
"2086",36,46,0.245092902935236,1,3,0,0,1,1216,14
"2087",36,47,0.280342346976256,1,1,1,1,1,988,15
"2088",36,48,0.343258883968891,-1,3,1,0,-1,950,14
