,SubID,trial_num,pUP,stock_outcome,Advisor,AdvisorCorrect,choice,outcome,rt,tally1,1,1,0.54442578,-1,2,1,0,-1,2556,-42,1,2,0.480930292,-1,3,0,0,1,3451,-33,1,3,0.383016455,-1,1,1,0,-1,2915,-44,1,4,0.335926971,NaN,3,NaN,NaN,NaN,NaN,-45,1,5,0.391129318,1,2,0,0,1,1424,-36,1,6,0.175659876,1,1,0,0,1,1396,-27,1,7,0.263602471,-1,2,1,1,1,2582,-18,1,8,0.383325102,-1,1,1,1,1,1471,09,1,9,0.283636327,-1,3,0,1,-1,1683,-110,1,10,0.262080673,1,1,1,0,-1,1844,-211,1,11,0.358000027,-1,2,0,1,-1,957,-312,1,12,0.309733756,-1,3,1,1,1,1088,-213,1,13,0.289010708,-1,2,0,1,-1,499,-314,1,14,0.457971262,-1,3,1,1,1,1097,-215,1,15,0.449340492,-1,1,1,0,-1,1765,-316,1,16,0.387412141,-1,3,0,0,1,1695,-217,1,17,0.334715821,1,2,1,0,-1,913,-318,1,18,0.339607722,-1,1,1,1,1,878,-219,1,19,0.275354788,-1,2,1,0,-1,1596,-320,1,20,0.349501861,-1,1,1,1,1,1306,-221,1,21,0.322912631,-1,3,0,0,1,1127,-122,1,22,0.222703594,-1,1,1,1,1,1317,023,1,23,0.179386052,-1,2,0,1,-1,2343,-124,1,24,0.176386814,-1,1,0,1,-1,961,-225,1,25,0.145842403,-1,3,1,0,-1,315,-326,1,26,0.198345577,1,2,1,0,-1,541,-427,1,27,0.320499833,-1,3,0,0,1,559,-328,1,28,0.261888778,-1,2,0,0,1,839,-229,1,29,0.419936508,-1,1,0,1,-1,1121,-330,1,30,0.486575789,-1,2,0,0,1,1055,-231,1,31,0.490192999,1,3,0,0,1,775,-132,1,32,0.529725623,-1,1,1,1,1,3139,033,1,33,0.508200133,-1,3,1,0,-1,1010,-134,1,34,0.538524587,1,1,1,1,1,1280,035,1,35,0.520574732,1,2,1,0,-1,1520,-136,1,36,0.517413245,-1,1,0,1,-1,1187,-237,1,37,0.557505717,-1,3,0,0,1,2032,-138,1,38,0.654153405,1,2,0,0,1,475,039,1,39,0.744220518,1,3,0,0,1,775,140,1,40,0.783491439,1,2,0,0,1,652,241,1,41,0.880301882,1,1,0,1,-1,1499,142,1,42,0.894093819,1,2,0,0,1,716,243,1,43,0.603395088,1,3,0,0,1,1578,344,1,44,0.60050619,1,2,1,0,-1,1196,245,1,45,0.636490837,1,1,1,1,1,867,346,1,46,0.586345535,1,3,0,0,1,975,447,1,47,0.587677679,-1,1,1,1,1,1194,548,1,48,0.609232564,-1,3,0,0,1,851,649,1,49,0.566058394,1,2,1,0,-1,837,550,1,50,0.51094012,1,3,1,0,-1,777,451,1,51,0.453362794,-1,1,1,1,1,1813,552,1,52,0.444054195,-1,2,0,0,1,686,653,1,53,0.541549608,-1,1,1,1,1,1009,754,1,54,0.650152241,1,2,1,0,-1,743,655,1,55,0.649223955,1,3,0,0,1,446,756,1,56,0.809238564,1,2,1,0,-1,621,657,1,57,0.891495997,1,1,1,1,1,1200,758,1,58,0.781211171,1,3,0,0,1,724,859,1,59,0.768776728,1,1,1,1,1,949,960,1,60,0.832439025,-1,3,0,0,1,699,1061,2,1,0.499678063,1,1,0,0,1,2188,1862,2,2,0.538066858,1,2,1,0,-1,1183,1763,2,3,0.643336971,1,3,0,0,1,951,1864,2,4,0.599323994,1,2,1,0,-1,1560,1765,2,5,0.535521053,-1,1,0,0,1,848,1866,2,6,0.617177111,-1,3,0,0,1,743,1967,2,7,0.689645645,1,1,0,1,-1,1488,1868,2,8,0.583332815,-1,3,0,0,1,663,1969,2,9,0.571534198,-1,2,0,1,-1,992,1870,2,10,0.649012142,1,3,0,0,1,304,1971,2,11,0.584902793,1,1,1,0,-1,544,1872,2,12,0.509542056,-1,2,1,1,1,528,1973,2,13,0.537701806,1,1,1,1,1,296,2074,2,14,0.606882882,1,2,0,0,1,295,2175,2,15,0.687439144,1,3,0,0,1,584,2276,2,16,0.836326511,1,2,1,0,-1,384,2177,2,17,0.799645673,1,1,1,1,1,335,2278,2,18,0.881084219,1,3,0,1,-1,360,2179,2,19,0.799725227,-1,1,1,0,-1,320,2080,2,20,0.724021826,-1,3,0,0,1,296,2181,2,21,0.713266759,-1,2,0,0,1,408,2282,2,22,0.746230517,1,3,0,0,1,344,2383,2,23,0.840906547,1,1,1,0,-1,199,2284,2,24,0.819268465,1,3,1,0,-1,288,2185,2,25,0.775874936,1,2,0,0,1,297,2286,2,26,0.708217712,1,1,1,0,-1,296,2187,2,27,0.680947031,-1,2,0,1,-1,304,2088,2,28,0.789487619,1,1,1,1,1,328,2189,2,29,0.692738974,1,3,1,1,1,519,2290,2,30,0.642374396,1,1,0,0,1,288,2391,2,31,0.678816858,1,2,1,0,-1,256,2292,2,32,0.583401082,-1,3,0,1,-1,88,2193,2,33,0.518137468,1,2,0,1,-1,64,2094,2,34,0.441578026,-1,3,1,0,-1,296,1995,2,35,0.395327077,-1,1,1,0,-1,608,1896,2,36,0.403283933,-1,3,0,1,-1,64,1797,2,37,0.332890503,-1,2,1,1,1,24,1898,2,38,0.232751174,-1,1,1,1,1,256,1999,2,39,0.203762084,1,2,0,1,-1,311,18100,2,40,0.305123538,-1,1,1,0,-1,184,17101,2,41,0.360464221,-1,3,0,0,1,248,18102,2,42,0.422923956,-1,1,1,1,1,247,19103,2,43,0.565711018,-1,2,1,1,1,312,20104,2,44,0.474464497,1,1,0,0,1,280,21105,2,45,0.45084263,1,3,1,0,-1,263,20106,2,46,0.439127621,1,2,0,0,1,272,21107,2,47,0.365764632,1,3,0,1,-1,352,20108,2,48,0.366616909,1,2,1,1,1,311,21109,2,49,0.320285561,-1,1,1,0,-1,304,20110,2,50,0.284329265,-1,2,1,0,-1,247,19111,2,51,0.359041114,1,3,0,0,1,128,20112,2,52,0.334460653,-1,1,1,0,-1,416,19113,2,53,0.309696343,-1,3,0,1,-1,304,18114,2,54,0.26044179,-1,1,1,0,-1,263,17115,2,55,0.245977008,1,2,0,1,-1,160,16116,2,56,0.19439324,-1,1,1,1,1,88,17117,2,57,0.115401084,-1,3,1,1,1,175,18118,2,58,0.106276503,1,2,0,0,1,280,19119,2,59,0.136306807,-1,3,0,0,1,432,20120,2,60,0.316463964,-1,2,1,0,-1,439,19121,3,1,0.427796571,-1,3,0,0,1,1470,3122,3,2,0.416946498,-1,1,0,1,-1,1165,2123,3,3,0.41190982,1,2,0,1,-1,600,1124,3,4,0.405872491,1,1,1,0,-1,422,0125,3,5,0.332455429,-1,3,0,0,1,969,1126,3,6,0.277248996,-1,2,0,0,1,934,2127,3,7,0.238986624,-1,3,0,0,1,1045,3128,3,8,0.160537057,-1,2,1,0,-1,719,2129,3,9,0.265320608,1,1,1,1,1,651,3130,3,10,0.221083807,-1,2,1,0,-1,799,2131,3,11,0.206169631,-1,3,0,0,1,805,3132,3,12,0.179929888,-1,1,1,1,1,611,4133,3,13,0.165563032,-1,3,1,1,1,1015,5134,3,14,0.104923787,-1,1,1,1,1,623,6135,3,15,0.122535148,-1,2,0,1,-1,748,5136,3,16,0.244558861,-1,1,1,1,1,660,6137,3,17,0.245141333,-1,3,0,0,1,1831,7138,3,18,0.311389636,-1,2,1,1,1,658,8139,3,19,0.24772578,-1,3,0,0,1,866,9140,3,20,0.207220474,-1,2,0,1,-1,735,8141,3,21,0.168251766,-1,1,1,1,1,543,9142,3,22,0.128847727,-1,2,1,1,1,717,10143,3,23,0.19109427,-1,3,0,0,1,933,11144,3,24,0.149821217,-1,2,1,1,1,832,12145,3,25,0.283335288,1,1,0,1,-1,562,11146,3,26,0.287708757,-1,3,1,0,-1,1031,10147,3,27,0.32526929,-1,1,1,1,1,581,11148,3,28,0.343867434,1,3,0,0,1,887,12149,3,29,0.452308507,1,2,0,1,-1,443,11150,3,30,0.44311496,1,3,0,0,1,614,12151,3,31,0.511873394,1,1,0,1,-1,703,11152,3,32,0.56864798,1,2,1,1,1,700,12153,3,33,0.680551205,1,1,1,1,1,532,13154,3,34,0.732120891,1,2,0,0,1,1265,14155,3,35,0.698296368,1,3,0,0,1,844,15156,3,36,0.731131254,1,2,1,0,-1,955,14157,3,37,0.649317687,1,1,1,1,1,488,15158,3,38,0.730864187,1,3,0,0,1,519,16159,3,39,0.649739638,1,1,1,1,1,654,17160,3,40,0.722170525,1,3,0,0,1,886,18161,3,41,0.848413566,1,2,1,1,1,563,19162,3,42,0.86373864,1,3,1,0,-1,638,18163,3,43,0.755556429,1,1,1,1,1,1051,19164,3,44,0.849810566,1,3,0,1,-1,1614,18165,3,45,0.868369137,1,2,1,1,1,971,19166,3,46,0.858385589,1,1,0,1,-1,580,18167,3,47,0.783821173,1,2,1,1,1,815,19168,3,48,0.775924599,1,1,1,1,1,2404,20169,3,49,0.792141658,1,3,1,0,-1,1358,19170,3,50,0.800428302,1,1,0,1,-1,584,18171,3,51,0.837974498,1,2,0,0,1,1384,19172,3,52,0.72338211,1,3,0,1,-1,702,18173,3,53,0.717434701,1,2,0,1,-1,966,17174,3,54,0.798307844,1,3,0,0,1,1536,18175,3,55,0.77467886,1,1,1,1,1,663,19176,3,56,0.868384187,1,3,1,0,-1,1087,18177,3,57,0.84157235,-1,2,0,0,1,848,19178,3,58,0.737828016,1,1,1,1,1,575,20179,3,59,0.788337715,1,2,0,0,1,1414,21180,3,60,0.770109695,1,1,1,1,1,864,22181,4,1,0.59324024,-1,1,1,1,1,1993,13182,4,2,0.511406728,-1,2,1,0,-1,1359,12183,4,3,0.559285392,1,3,0,1,-1,1200,11184,4,4,0.550321147,-1,2,0,1,-1,2350,10185,4,5,0.584427842,-1,1,0,0,1,1761,11186,4,6,0.644104178,1,3,0,1,-1,1121,10187,4,7,0.591919695,1,1,1,1,1,1584,11188,4,8,0.680861207,1,3,1,0,-1,1168,10189,4,9,0.759838508,1,2,1,1,1,1151,11190,4,10,0.793200872,1,3,0,0,1,1040,12191,4,11,0.816198828,1,1,1,1,1,1007,13192,4,12,0.724005671,1,2,1,1,1,800,14193,4,13,0.747223171,1,1,0,1,-1,767,13194,4,14,0.779882621,-1,2,0,1,-1,719,12195,4,15,0.856858241,1,3,1,0,-1,863,11196,4,16,0.865215299,1,2,1,1,1,624,12197,4,17,0.824721759,1,1,1,1,1,591,13198,4,18,0.875872011,1,3,0,0,1,1569,14199,4,19,0.70689053,-1,1,1,1,1,991,15200,4,20,0.662309538,1,3,0,0,1,833,16201,4,21,0.684107453,1,2,0,1,-1,591,15202,4,22,0.782254464,1,3,1,0,-1,1999,14203,4,23,0.701120352,1,1,1,1,1,640,15204,4,24,0.594249101,-1,3,0,0,1,720,16205,4,25,0.608425344,1,2,0,1,-1,576,15206,4,26,0.688995442,1,1,1,1,1,800,16207,4,27,0.691714806,-1,2,0,1,-1,1312,15208,4,28,0.614565982,-1,1,1,1,1,896,16209,4,29,0.540036478,-1,3,1,0,-1,703,15210,4,30,0.541811668,1,1,1,1,1,784,16211,4,31,0.521950916,-1,2,0,1,-1,624,15212,4,32,0.591684626,1,3,0,0,1,1007,16213,4,33,0.500724238,-1,2,0,1,-1,959,15214,4,34,0.490649527,-1,3,0,1,-1,1200,14215,4,35,0.512024523,-1,1,1,1,1,848,15216,4,36,0.426459552,1,3,0,0,1,944,16217,4,37,0.352622889,-1,2,1,1,1,943,17218,4,38,0.397792988,1,1,1,1,1,911,18219,4,39,0.264664677,-1,2,1,0,-1,1856,17220,4,40,0.22702445,-1,1,0,1,-1,864,16221,4,41,0.239581388,-1,3,0,0,1,1263,17222,4,42,0.203900371,-1,1,0,1,-1,1024,16223,4,43,0.16726584,-1,2,0,1,-1,912,15224,4,44,0.241359913,-1,1,1,1,1,3279,16225,4,45,0.363617043,1,3,1,0,-1,704,15226,4,46,0.482577781,1,2,0,1,-1,639,14227,4,47,0.526751435,-1,3,0,0,1,655,15228,4,48,0.474193049,-1,2,0,1,-1,721,14229,4,49,0.328910092,1,1,1,1,1,800,15230,4,50,0.400238179,1,2,1,1,1,880,16231,4,51,0.458726453,1,3,0,0,1,1024,17232,4,52,0.425258975,-1,1,0,1,-1,1169,16233,4,53,0.386656226,-1,3,0,0,1,1151,17234,4,54,0.259541164,-1,1,1,1,1,928,18235,4,55,0.247649861,-1,2,1,1,1,928,19236,4,56,0.191314777,1,1,1,1,1,993,20237,4,57,0.287117507,1,3,0,0,1,687,21238,4,58,0.18642208,-1,2,1,1,1,768,22239,4,59,0.107033045,-1,3,0,0,1,832,23240,4,60,0.137208644,-1,2,1,1,1,672,24241,5,1,0.439897297,-1,1,1,0,-1,2118,6242,5,2,0.443934033,-1,2,1,0,-1,1499,5243,5,3,0.501623538,-1,3,0,0,1,1322,6244,5,4,0.411597953,-1,2,1,1,1,1184,7245,5,5,0.346702983,-1,1,1,1,1,1009,8246,5,6,0.369061893,-1,3,0,0,1,889,9247,5,7,0.465748324,-1,1,1,1,1,1293,10248,5,8,0.402103871,-1,3,1,0,-1,949,9249,5,9,0.357946931,-1,2,0,0,1,1039,10250,5,10,0.277748622,-1,3,1,1,1,1323,11251,5,11,0.353436749,-1,1,1,1,1,684,12252,5,12,0.29860861,-1,2,0,0,1,732,13253,5,13,0.22729062,-1,1,0,1,-1,838,12254,5,14,0.220507866,1,2,0,1,-1,1263,11255,5,15,0.159826622,-1,3,0,1,-1,1210,10256,5,16,0.308568774,1,2,1,0,-1,1495,9257,5,17,0.303976006,-1,1,0,1,-1,1058,8258,5,18,0.301346016,-1,3,0,1,-1,575,7259,5,19,0.210934972,1,1,1,0,-1,447,6260,5,20,0.1960346,-1,3,0,1,-1,673,5261,5,21,0.171755718,-1,2,1,1,1,624,6262,5,22,0.255635838,1,3,0,1,-1,1148,5263,5,23,0.450024274,1,1,0,1,-1,1180,4264,5,24,0.546310033,1,3,0,0,1,1009,5265,5,25,0.450595375,1,2,0,1,-1,1090,4266,5,26,0.587740124,1,1,1,0,-1,1216,3267,5,27,0.518953062,1,2,0,1,-1,2678,2268,5,28,0.591089904,1,1,1,1,1,707,3269,5,29,0.562773851,-1,3,1,0,-1,1342,2270,5,30,0.533971684,-1,1,1,1,1,1064,3271,5,31,0.689755476,-1,2,1,1,1,515,4272,5,32,0.715524467,1,3,0,1,-1,425,3273,5,33,0.792355477,1,2,1,1,1,347,4274,5,34,0.83882532,1,3,0,1,-1,370,3275,5,35,0.888914051,1,1,0,1,-1,409,2276,5,36,0.735520552,-1,3,0,1,-1,547,1277,5,37,0.7984915,1,2,0,0,1,607,2278,5,38,0.655363934,1,1,1,1,1,1136,3279,5,39,0.572056114,-1,2,1,0,-1,598,2280,5,40,0.694089309,-1,1,1,1,1,747,3281,5,41,0.667079212,-1,3,0,1,-1,699,2282,5,42,0.712924591,1,1,1,1,1,685,3283,5,43,0.724573806,1,2,1,0,-1,806,2284,5,44,0.632269059,1,1,1,1,1,611,3285,5,45,0.642226704,1,3,0,0,1,1249,4286,5,46,0.608378694,1,2,0,1,-1,496,3287,5,47,0.690923895,1,3,0,1,-1,941,2288,5,48,0.54980722,1,2,1,0,-1,1105,1289,5,49,0.471245636,-1,1,1,1,1,72,2290,5,50,0.419108929,-1,2,0,1,-1,841,1291,5,51,0.314265969,-1,3,0,0,1,357,2292,5,52,0.313445611,1,1,1,1,1,725,3293,5,53,0.359561555,-1,3,1,1,1,793,4294,5,54,0.403680071,-1,1,1,0,-1,1235,3295,5,55,0.4530734,-1,2,0,1,-1,933,2296,5,56,0.453169471,-1,1,0,1,-1,573,1297,5,57,0.490684411,-1,3,0,1,-1,416,0298,5,58,0.563545924,-1,2,0,0,1,375,1299,5,59,0.406584134,-1,3,1,0,-1,433,0300,5,60,0.446934439,1,2,1,0,-1,398,-1301,6,1,0.595970077,1,2,1,1,1,1014,7302,6,2,0.650684043,1,3,1,1,1,784,8303,6,3,0.486237468,-1,1,1,1,1,752,9304,6,4,0.489231496,-1,3,0,1,-1,880,8305,6,5,0.493457878,-1,2,1,1,1,704,9306,6,6,0.391833605,-1,1,0,1,-1,1089,8307,6,7,0.383570584,-1,2,1,1,1,864,9308,6,8,0.469725074,1,1,1,0,-1,1072,8309,6,9,0.382014011,-1,3,0,0,1,783,9310,6,10,0.370533696,-1,1,1,1,1,658,10311,6,11,0.392311648,-1,2,1,1,1,608,11312,6,12,0.410365526,-1,3,0,0,1,544,12313,6,13,0.236034769,1,2,0,1,-1,448,11314,6,14,0.32193303,-1,3,0,0,1,896,12315,6,15,0.278602543,-1,1,0,1,-1,816,11316,6,16,0.423090142,-1,3,0,0,1,544,12317,6,17,0.27913709,-1,2,1,1,1,545,13318,6,18,0.170578512,-1,1,1,1,1,704,14319,6,19,0.184267971,-1,2,1,1,1,496,15320,6,20,0.17145845,-1,1,0,1,-1,672,14321,6,21,0.113626169,-1,1,0,1,-1,527,13322,6,22,0.11771657,1,2,0,1,-1,464,12323,6,23,0.277989167,-1,3,0,0,1,496,13324,6,24,0.252776868,1,2,1,1,1,624,14325,6,25,0.186292259,1,1,1,1,1,527,15326,6,26,0.184878612,-1,3,0,0,1,529,16327,6,27,0.420787318,1,1,0,1,-1,432,15328,6,28,0.526735858,-1,3,0,1,-1,4864,14329,6,29,0.604305703,1,2,0,1,-1,864,13330,6,30,0.699518903,-1,3,1,0,-1,896,12331,6,31,0.627331664,-1,1,1,1,1,1009,13332,6,32,0.656373767,-1,2,0,1,-1,512,12333,6,33,0.633563094,1,1,1,1,1,720,13334,6,34,0.711823729,1,2,1,1,1,592,14335,6,35,0.70821678,1,3,0,0,1,464,15336,6,36,0.551045549,1,2,0,1,-1,336,14337,6,37,0.484630692,-1,1,1,1,1,480,15338,6,38,0.49166953,1,3,0,0,1,448,16339,6,39,0.537292127,1,1,1,1,1,560,17340,6,40,0.589011971,1,3,0,0,1,464,18341,6,41,0.579337774,1,3,1,1,1,367,19342,6,42,0.502341506,-1,1,1,1,1,623,20343,6,43,0.499079859,1,2,1,1,1,592,21344,6,44,0.514501384,1,1,1,1,1,753,22345,6,45,0.44215174,-1,3,1,0,-1,464,21346,6,46,0.440498675,-1,2,1,1,1,448,22347,6,47,0.474818474,1,3,0,0,1,607,23348,6,48,0.518197797,-1,2,0,1,-1,496,22349,6,49,0.540383145,-1,1,1,1,1,496,23350,6,50,0.609298166,1,2,0,1,-1,896,22351,6,51,0.641663746,1,3,0,0,1,688,23352,6,52,0.520426786,-1,1,1,1,1,640,24353,6,53,0.467915764,1,3,0,0,1,543,25354,6,54,0.5296819,-1,1,1,1,1,657,26355,6,55,0.507117978,-1,2,0,1,-1,624,25356,6,56,0.488600584,1,1,1,1,1,656,26357,6,57,0.460374409,1,3,0,0,1,528,27358,6,58,0.491600901,1,2,0,1,-1,480,26359,6,59,0.500686963,1,3,1,0,-1,848,25360,6,60,0.616781437,-1,2,0,1,-1,448,24361,8,1,0.508783654,1,2,1,1,1,2280,-1362,8,2,0.653921368,-1,3,0,0,1,888,0363,8,3,0.657418131,1,1,1,1,1,944,1364,8,4,0.585936412,-1,3,0,0,1,830,2365,8,5,0.530595416,-1,2,0,1,-1,704,1366,8,6,0.527138485,1,1,1,1,1,582,2367,8,7,0.61022869,1,2,1,1,1,867,3368,8,8,0.609414743,1,1,0,1,-1,807,2369,8,9,0.661806886,-1,3,0,0,1,775,3370,8,10,0.608174404,1,1,1,1,1,696,4371,8,11,0.551329413,1,2,1,1,1,620,5372,8,12,0.511253686,1,3,1,0,-1,647,4373,8,13,0.559568354,1,2,1,1,1,1052,5374,8,14,0.617520425,-1,3,1,0,-1,832,4375,8,15,0.555595176,-1,1,1,1,1,837,5376,8,16,0.470198097,1,3,0,1,-1,1329,4377,8,17,0.349821832,-1,2,1,1,1,821,5378,8,18,0.463128084,1,1,1,1,1,771,6379,8,19,0.420894211,1,2,1,1,1,567,7380,8,20,0.348664415,1,1,1,1,1,734,8381,8,21,0.344498951,-1,3,0,0,1,656,9382,8,22,0.228887059,1,1,1,1,1,709,10383,8,23,0.177357574,-1,2,1,1,1,803,11384,8,24,0.103463199,-1,1,1,1,1,748,12385,8,25,0.184976684,-1,3,0,0,1,429,13386,8,26,0.135891505,-1,2,0,1,-1,706,12387,8,27,0.142166441,-1,3,0,0,1,698,13388,8,28,0.185027137,-1,2,0,1,-1,713,12389,8,29,0.167054752,-1,1,1,1,1,768,13390,8,30,0.106430009,-1,2,0,0,1,777,14391,8,31,0.166688549,-1,3,1,1,1,1082,15392,8,32,0.277621037,1,1,1,1,1,635,16393,8,33,0.263388032,-1,3,0,0,1,1468,17394,8,34,0.265543909,1,1,1,1,1,1018,18395,8,35,0.355377484,1,2,0,0,1,1130,19396,8,36,0.341640488,-1,1,0,1,-1,842,18397,8,37,0.249408925,-1,3,1,0,-1,1650,17398,8,38,0.279571227,-1,2,0,1,-1,823,16399,8,39,0.436248886,-1,3,0,1,-1,1060,15400,8,40,0.38934701,-1,2,0,1,-1,1099,14401,8,41,0.528410209,-1,1,0,1,-1,632,13402,8,42,0.510333421,-1,2,1,0,-1,391,12403,8,43,0.536040678,-1,3,0,0,1,479,13404,8,44,0.596963041,-1,2,0,0,1,754,14405,8,45,0.617851127,1,1,1,0,-1,545,13406,8,46,0.561323307,1,3,0,0,1,1233,14407,8,47,0.57349974,1,1,0,1,-1,708,13408,8,48,0.583143137,1,3,0,1,-1,551,12409,8,49,0.722366988,-1,2,0,1,-1,322,11410,8,50,0.758431768,1,3,0,0,1,480,12411,8,51,0.752605805,1,1,1,1,1,543,13412,8,52,0.691419364,-1,2,1,0,-1,629,12413,8,53,0.78688279,1,1,1,1,1,1014,13414,8,54,0.855361014,1,2,0,1,-1,1071,12415,8,55,0.885482709,1,3,0,0,1,819,13416,8,56,0.847674217,1,2,1,1,1,989,14417,8,57,0.869912456,1,1,0,1,-1,601,13418,8,58,0.877900844,1,3,1,0,-1,777,12419,8,59,0.834585062,1,1,1,1,1,638,13420,8,60,0.823612362,1,3,0,0,1,1048,14421,9,1,0.477221508,1,3,1,1,1,1873,7422,9,2,0.501788006,-1,1,0,0,1,1530,8423,9,3,0.606188406,1,2,0,1,-1,1223,7424,9,4,0.665288608,-1,1,1,0,-1,2136,6425,9,5,0.659882273,1,3,0,1,-1,1216,5426,9,6,0.516373649,-1,2,1,1,1,1230,6427,9,7,0.620577305,1,3,1,1,1,1720,7428,9,8,0.642231004,-1,2,1,1,1,1183,8429,9,9,0.705923654,1,1,1,0,-1,2029,7430,9,10,0.642133473,1,2,1,1,1,1021,8431,9,11,0.649362827,-1,3,1,0,-1,1915,7432,9,12,0.687412232,1,1,1,0,-1,1716,6433,9,13,0.718564223,1,3,0,1,-1,828,5434,9,14,0.713717762,1,1,1,1,1,937,6435,9,15,0.632303053,1,2,0,1,-1,763,5436,9,16,0.621631918,1,1,0,1,-1,616,4437,9,17,0.62743632,1,3,0,1,-1,555,3438,9,18,0.577893421,-1,2,0,1,-1,706,2439,9,19,0.610426276,-1,3,0,0,1,858,3440,9,20,0.608947224,1,2,1,0,-1,837,2441,9,21,0.655983674,1,1,0,0,1,559,3442,9,22,0.59228532,-1,2,1,0,-1,412,2443,9,23,0.614530521,-1,3,0,1,-1,426,1444,9,24,0.674226693,-1,2,1,1,1,599,2445,9,25,0.716819832,1,1,1,1,1,748,3446,9,26,0.712541346,1,3,0,1,-1,1162,2447,9,27,0.704211082,-1,1,1,0,-1,587,1448,9,28,0.713532124,-1,3,0,0,1,386,2449,9,29,0.8086806,1,2,0,1,-1,561,1450,9,30,0.660034834,1,3,0,1,-1,1104,0451,9,31,0.555543494,-1,1,1,0,-1,478,-1452,9,32,0.476191383,-1,2,0,0,1,1321,0453,9,33,0.471868745,1,1,1,1,1,682,1454,9,34,0.527139639,1,2,1,1,1,1378,2455,9,35,0.495150736,1,3,1,0,-1,1273,1456,9,36,0.455625416,1,2,1,0,-1,968,0457,9,37,0.469167982,1,1,0,1,-1,620,-1458,9,38,0.538609184,-1,3,1,1,1,530,0459,9,39,0.581324717,-1,1,0,1,-1,458,-1460,9,40,0.501648183,-1,3,0,1,-1,373,-2461,9,41,0.366102401,-1,2,0,0,1,769,-1462,9,42,0.352100521,-1,3,0,0,1,687,0463,9,43,0.275035575,1,1,1,0,-1,265,-1464,9,44,0.257037626,-1,3,0,1,-1,557,-2465,9,45,0.24903062,1,2,1,1,1,612,-1466,9,46,0.215618109,1,1,1,1,1,378,0467,9,47,0.231936883,-1,2,0,1,-1,751,-1468,9,48,0.162683504,-1,1,1,1,1,627,0469,9,49,0.13195832,-1,3,0,1,-1,1078,-1470,9,50,0.236231728,-1,1,1,1,1,803,0471,9,51,0.213765455,1,2,0,0,1,492,1472,9,52,0.264671994,-1,3,0,0,1,778,2473,9,53,0.220959002,-1,2,0,0,1,756,3474,9,54,0.356530174,1,3,0,0,1,625,4475,9,55,0.334790268,-1,1,1,1,1,672,5476,9,56,0.204115883,-1,3,0,0,1,706,6477,9,57,0.22132384,-1,2,0,0,1,600,7478,9,58,0.172277503,-1,1,1,1,1,752,8479,9,59,0.134566984,-1,2,1,0,-1,630,7480,9,60,0.10018437,-1,1,1,0,-1,523,6481,10,1,0.53274622,-1,2,1,1,1,2617,-1482,10,2,0.431543653,-1,3,1,1,1,1567,0483,10,3,0.532107337,-1,1,1,0,-1,1340,-1484,10,4,0.539389851,1,3,1,1,1,1185,0485,10,5,0.550588129,-1,2,0,1,-1,1137,-1486,10,6,0.562859511,1,1,1,1,1,375,0487,10,7,0.607880375,1,2,1,1,1,576,1488,10,8,0.647936237,-1,1,1,1,1,613,2489,10,9,0.620588975,1,3,0,1,-1,988,1490,10,10,0.74759827,1,1,0,1,-1,414,0491,10,11,0.81325057,-1,2,1,1,1,337,1492,10,12,0.853183631,1,3,0,1,-1,429,0493,10,13,0.830505657,1,2,1,1,1,819,1494,10,14,0.66429504,1,3,1,1,1,900,2495,10,15,0.793898489,-1,1,1,1,1,478,3496,10,16,0.829139304,-1,3,0,1,-1,368,2497,10,17,0.799778558,1,2,0,1,-1,1214,1498,10,18,0.664637045,-1,1,1,1,1,594,2499,10,19,0.505735129,-1,2,1,1,1,424,3500,10,20,0.520089683,1,1,1,1,1,344,4501,10,21,0.60945826,1,1,1,1,1,305,5502,10,22,0.675501856,1,2,0,1,-1,557,4503,10,23,0.552139937,1,3,0,1,-1,1134,3504,10,24,0.548514388,-1,2,0,0,1,1664,4505,10,25,0.654397796,-1,1,1,1,1,1136,5506,10,26,0.622789306,-1,3,0,1,-1,848,4507,10,27,0.635217834,1,1,1,1,1,1069,5508,10,28,0.547918739,1,3,0,1,-1,959,4509,10,29,0.425496372,-1,2,0,0,1,768,5510,10,30,0.363785652,-1,3,0,1,-1,767,4511,10,31,0.33796948,-1,1,1,1,1,957,5512,10,32,0.473867524,-1,2,1,0,-1,1061,4513,10,33,0.492920967,1,1,0,1,-1,689,3514,10,34,0.496278085,-1,2,0,0,1,499,4515,10,35,0.586985749,1,3,0,1,-1,808,3516,10,36,0.489180432,-1,2,1,0,-1,1089,2517,10,37,0.552843491,1,1,0,1,-1,527,1518,10,38,0.665589915,1,3,0,1,-1,484,0519,10,39,0.652129102,-1,1,0,1,-1,301,-1520,10,40,0.544599759,-1,3,0,0,1,223,0521,10,41,0.548502784,1,3,0,0,1,701,1522,10,42,0.46435541,-1,1,1,0,-1,334,0523,10,43,0.427834428,1,2,1,0,-1,367,-1524,10,44,0.330004553,1,1,1,1,1,753,0525,10,45,0.325356953,-1,3,0,1,-1,377,-1526,10,46,0.34505668,-1,2,1,1,1,398,0527,10,47,0.291729855,-1,3,1,1,1,357,1528,10,48,0.265174614,1,2,0,1,-1,280,0529,10,49,0.304692773,1,1,0,1,-1,307,-1530,10,50,0.225063127,-1,2,0,1,-1,332,-2531,10,51,0.230708268,-1,3,0,1,-1,291,-3532,10,52,0.255411637,-1,1,1,1,1,408,-2533,10,53,0.284574493,-1,3,0,1,-1,922,-3534,10,54,0.33641488,-1,1,1,1,1,576,-2535,10,55,0.38118844,-1,2,0,1,-1,783,-3536,10,56,0.354221808,1,1,1,0,-1,399,-4537,10,57,0.417926081,1,3,0,0,1,296,-3538,10,58,0.364447043,-1,2,0,0,1,307,-2539,10,59,0.411109977,1,3,1,0,-1,343,-3540,10,60,0.391747771,-1,2,1,0,-1,312,-4541,11,1,0.579035883,-1,1,0,1,-1,1133,14542,11,2,0.560549728,-1,2,1,1,1,1206,15543,11,3,0.725864614,1,3,1,0,-1,993,14544,11,4,0.637118821,-1,2,0,1,-1,1236,13545,11,5,0.636681361,-1,1,1,0,-1,1110,12546,11,6,0.644066878,1,3,1,0,-1,1186,11547,11,7,0.682752642,1,1,1,1,1,1230,12548,11,8,0.807315915,1,3,0,1,-1,1244,11549,11,9,0.884708404,1,2,0,0,1,1434,12550,11,10,0.889521315,1,3,0,0,1,985,13551,11,11,0.872405472,-1,1,0,0,1,937,14552,11,12,0.809080668,-1,2,1,0,-1,1937,13553,11,13,0.719260121,-1,1,1,1,1,1352,14554,11,14,0.686471857,1,2,0,1,-1,1615,13555,11,15,0.69877855,-1,3,0,0,1,1368,14556,11,16,0.653450412,-1,2,1,0,-1,1125,13557,11,17,0.603938107,1,1,1,0,-1,1345,12558,11,18,0.486819748,1,3,1,1,1,1462,13559,11,19,0.421048747,-1,1,1,1,1,1493,14560,11,20,0.325732555,1,3,0,1,-1,827,13561,11,21,0.305563419,-1,3,0,0,1,1164,14562,11,22,0.159901554,-1,1,1,0,-1,910,13563,11,23,0.308963733,1,2,1,0,-1,1392,12564,11,24,0.388352642,1,1,0,1,-1,1198,11565,11,25,0.297294905,1,3,0,1,-1,492,10566,11,26,0.421861887,-1,2,0,1,-1,1026,9567,11,27,0.383481713,1,3,1,0,-1,318,8568,11,28,0.338585538,-1,2,0,1,-1,713,7569,11,29,0.365630143,-1,1,1,0,-1,467,6570,11,30,0.374400512,1,2,0,0,1,221,7571,11,31,0.346565064,-1,3,0,1,-1,812,6572,11,32,0.440395209,1,1,1,1,1,1461,7573,11,33,0.383694669,-1,3,0,0,1,825,8574,11,34,0.468661761,-1,1,0,1,-1,808,7575,11,35,0.480831321,1,2,1,0,-1,533,6576,11,36,0.570613834,-1,1,0,1,-1,1054,5577,11,37,0.500407351,1,3,0,1,-1,1116,4578,11,38,0.600722267,1,2,1,0,-1,1241,3579,11,39,0.598384805,-1,3,1,1,1,1805,4580,11,40,0.620909708,1,2,1,0,-1,731,3581,11,41,0.555084135,1,2,0,1,-1,840,2582,11,42,0.590816787,1,3,0,0,1,327,3583,11,43,0.657612581,1,1,1,1,1,1028,4584,11,44,0.666598739,-1,3,0,0,1,596,5585,11,45,0.695995229,1,2,0,0,1,1283,6586,11,46,0.7379962,1,1,1,1,1,585,7587,11,47,0.690447974,1,2,1,0,-1,578,6588,11,48,0.587509731,1,1,1,1,1,625,7589,11,49,0.476454758,-1,3,0,0,1,517,8590,11,50,0.523887191,-1,1,1,1,1,694,9591,11,51,0.485398347,-1,2,0,0,1,704,10592,11,52,0.516319519,1,3,0,0,1,844,11593,11,53,0.461553995,1,2,0,0,1,794,12594,11,54,0.449317951,1,3,0,0,1,874,13595,11,55,0.409916561,-1,1,1,1,1,542,14596,11,56,0.267455997,-1,3,0,0,1,568,15597,11,57,0.259483952,1,2,1,0,-1,1043,14598,11,58,0.355792083,-1,1,1,1,1,655,15599,11,59,0.279644647,-1,2,1,0,-1,688,14600,11,60,0.267239426,1,1,1,0,-1,766,13601,12,1,0.440008529,1,3,0,1,-1,844,-11602,12,2,0.442660827,-1,1,1,0,-1,728,-12603,12,3,0.422747824,-1,2,1,0,-1,928,-13604,12,4,0.30611917,-1,1,0,1,-1,808,-14605,12,5,0.226239558,1,3,0,0,1,992,-13606,12,6,0.206043072,-1,2,1,0,-1,744,-14607,12,7,0.344504945,-1,3,0,0,1,960,-13608,12,8,0.312099819,-1,2,1,1,1,344,-12609,12,9,0.238886643,-1,1,1,1,1,1047,-11610,12,10,0.203908189,1,2,0,1,-1,905,-12611,12,11,0.13707491,-1,3,0,1,-1,327,-13612,12,12,0.117490242,-1,1,1,0,-1,600,-14613,12,13,0.131919684,-1,3,0,0,1,1008,-13614,12,14,0.304197814,-1,1,1,1,1,728,-12615,12,15,0.399228234,1,2,1,1,1,656,-11616,12,16,0.406896437,-1,1,1,1,1,608,-10617,12,17,0.519910601,1,3,0,0,1,599,-9618,12,18,0.500648364,-1,2,1,1,1,520,-8619,12,19,0.488890583,1,3,0,0,1,645,-7620,12,20,0.451117632,-1,2,0,1,-1,571,-8621,12,21,0.438871262,-1,1,1,1,1,600,-7622,12,22,0.470615691,1,2,0,1,-1,824,-8623,12,23,0.358342389,-1,3,1,0,-1,720,-9624,12,24,0.382444347,-1,2,0,1,-1,600,-10625,12,25,0.470054454,-1,1,1,1,1,872,-9626,12,26,0.356957365,-1,3,1,0,-1,736,-10627,12,27,0.32825374,-1,1,0,1,-1,687,-11628,12,28,0.354181002,-1,3,0,0,1,760,-10629,12,29,0.393753684,1,2,1,1,1,824,-9630,12,30,0.518569528,-1,3,0,0,1,600,-8631,12,31,0.555975153,-1,1,0,1,-1,744,-9632,12,32,0.605630532,-1,2,1,1,1,608,-8633,12,33,0.620494276,1,1,1,1,1,631,-7634,12,34,0.597990034,1,2,0,1,-1,576,-8635,12,35,0.50307625,1,3,0,0,1,624,-7636,12,36,0.481046643,1,2,0,1,-1,569,-8637,12,37,0.465474129,-1,1,1,1,1,496,-7638,12,38,0.579403966,1,3,0,0,1,624,-6639,12,39,0.630842261,-1,1,1,1,1,584,-5640,12,40,0.651192525,1,3,1,0,-1,1400,-6641,12,41,0.67216059,1,2,0,1,-1,352,-7642,12,42,0.673179079,1,3,1,0,-1,704,-8643,12,43,0.706670029,1,1,1,1,1,761,-7644,12,44,0.598241735,-1,3,0,0,1,688,-6645,12,45,0.663143819,1,2,1,1,1,808,-5646,12,46,0.767381416,1,1,1,1,1,471,-4647,12,47,0.739100581,-1,2,0,1,-1,624,-5648,12,48,0.843217084,1,1,0,1,-1,808,-6649,12,49,0.783087411,1,3,0,0,1,888,-5650,12,50,0.69462286,-1,1,1,1,1,656,-4651,12,51,0.650593475,1,2,0,1,-1,496,-5652,12,52,0.6597133,1,3,1,0,-1,839,-6653,12,53,0.545781578,1,2,1,1,1,744,-5654,12,54,0.574169396,1,3,0,0,1,680,-4655,12,55,0.535088267,1,1,1,1,1,640,-3656,12,56,0.557589771,1,3,0,0,1,639,-2657,12,57,0.641630449,1,2,0,1,-1,760,-3658,12,58,0.571810474,1,1,1,0,-1,2632,-4659,12,59,0.59483499,-1,2,1,1,1,4480,-3660,12,60,0.530373073,1,1,0,1,-1,1408,-4661,15,1,0.582865635,-1,1,1,0,-1,2486,5662,15,2,0.435207986,1,2,0,0,1,2023,6663,15,3,0.468062369,-1,3,0,1,-1,1009,5664,15,4,0.433558756,1,2,1,0,-1,1544,4665,15,5,0.451631304,-1,1,1,0,-1,1095,3666,15,6,0.475713123,-1,3,1,0,-1,817,2667,15,7,0.388438463,-1,1,1,1,1,838,3668,15,8,0.321556527,-1,3,0,0,1,889,4669,15,9,0.300113256,-1,2,0,0,1,2008,5670,15,10,0.419720147,1,3,0,1,-1,1241,4671,15,11,0.288501368,1,1,1,1,1,800,5672,15,12,0.238978353,-1,2,0,0,1,2399,6673,15,13,0.213247256,-1,1,1,1,1,1265,7674,15,14,0.36979741,1,2,0,0,1,2087,8675,15,15,0.30555602,-1,3,0,0,1,768,9676,15,16,0.372457652,-1,2,1,1,1,1048,10677,15,17,0.272727495,-1,1,0,1,-1,824,9678,15,18,0.309776128,-1,3,1,0,-1,1488,8679,15,19,0.254326519,-1,1,1,1,1,752,9680,15,20,0.243862904,-1,3,1,0,-1,1992,8681,15,21,0.167557811,-1,3,0,1,-1,696,7682,15,22,0.129440941,1,1,1,1,1,721,8683,15,23,0.143761697,-1,2,1,0,-1,1295,7684,15,24,0.177953615,-1,1,1,1,1,793,8685,15,25,0.180159245,-1,3,0,0,1,2591,9686,15,26,0.229221742,-1,2,1,1,1,1072,10687,15,27,0.199066673,-1,3,1,0,-1,1104,9688,15,28,0.31144765,-1,2,1,0,-1,888,8689,15,29,0.318316808,1,1,1,1,1,824,9690,15,30,0.395183899,1,2,1,0,-1,920,8691,15,31,0.428707198,1,3,0,0,1,967,9692,15,32,0.537913894,-1,1,1,1,1,552,10693,15,33,0.581638907,1,3,1,0,-1,959,9694,15,34,0.63761534,1,1,1,1,1,514,10695,15,35,0.663254025,1,2,0,1,-1,558,9696,15,36,0.58011971,1,1,0,1,-1,664,8697,15,37,0.672652742,1,3,0,1,-1,1056,7698,15,38,0.644967943,-1,2,1,1,1,264,8699,15,39,0.708448495,1,3,0,0,1,321,9700,15,40,0.771937287,1,2,1,1,1,263,10701,15,41,0.800279582,1,2,0,0,1,800,11702,15,42,0.748760011,1,3,0,0,1,1024,12703,15,43,0.701988649,1,1,0,1,-1,649,11704,15,44,0.777903139,1,3,0,1,-1,503,10705,15,45,0.758950706,1,2,0,0,1,632,11706,15,46,0.805651531,1,1,1,1,1,624,12707,15,47,0.831602505,1,2,0,0,1,465,13708,15,48,0.81868757,1,1,0,1,-1,847,12709,15,49,0.730395288,-1,3,0,1,-1,344,11710,15,50,0.658364633,-1,1,0,1,-1,1848,10711,15,51,0.565948921,1,2,1,0,-1,1847,9712,15,52,0.594752244,1,3,0,1,-1,441,8713,15,53,0.596390967,1,2,0,0,1,671,9714,15,54,0.595361717,1,3,0,0,1,911,10715,15,55,0.593338166,-1,1,1,0,-1,552,9716,15,56,0.677959129,1,3,0,0,1,736,10717,15,57,0.72750211,-1,2,0,0,1,2097,11718,15,58,0.752140092,1,1,1,1,1,488,12719,15,59,0.77847586,1,2,1,0,-1,303,11720,15,60,0.739922488,-1,1,1,0,-1,568,10721,16,1,0.495449774,1,1,1,1,1,677,7722,16,2,0.526981415,-1,2,0,1,-1,545,6723,16,3,0.556932023,-1,3,0,1,-1,621,5724,16,4,0.497894043,1,2,0,1,-1,801,4725,16,5,0.441489028,-1,1,1,1,1,334,5726,16,6,0.426459702,1,3,0,1,-1,303,4727,16,7,0.353781254,-1,1,1,1,1,975,5728,16,8,0.373983559,-1,3,0,0,1,662,6729,16,9,0.309420142,-1,2,1,0,-1,846,5730,16,10,0.327747775,1,3,0,0,1,722,6731,16,11,0.423372448,-1,1,1,1,1,542,7732,16,12,0.393273586,1,2,1,0,-1,585,6733,16,13,0.393057128,1,1,1,1,1,645,7734,16,14,0.41469469,-1,2,1,0,-1,535,6735,16,15,0.48332109,1,3,0,0,1,473,7736,16,16,0.463831641,-1,2,0,0,1,618,8737,16,17,0.444445249,-1,1,1,1,1,482,9738,16,18,0.446543596,-1,3,1,0,-1,457,8739,16,19,0.382583648,-1,1,0,1,-1,559,7740,16,20,0.417480502,1,3,0,0,1,578,8741,16,21,0.53083366,-1,3,0,0,1,585,9742,16,22,0.535990761,-1,1,1,1,1,523,10743,16,23,0.4940925,-1,2,0,0,1,522,11744,16,24,0.405335622,-1,1,1,1,1,559,12745,16,25,0.468068746,-1,3,1,0,-1,475,11746,16,26,0.402444671,-1,2,1,0,-1,616,10747,16,27,0.436457071,1,3,0,0,1,717,11748,16,28,0.342617196,-1,2,0,1,-1,456,10749,16,29,0.398462578,1,1,0,1,-1,761,9750,16,30,0.517619394,1,2,1,0,-1,1091,8751,16,31,0.682595637,1,3,0,0,1,641,9752,16,32,0.631387342,-1,1,0,1,-1,620,8753,16,33,0.639102771,1,3,0,0,1,602,9754,16,34,0.57661796,1,1,1,1,1,737,10755,16,35,0.680929085,1,2,1,0,-1,540,9756,16,36,0.607675285,1,1,0,1,-1,563,8757,16,37,0.68990482,1,3,1,0,-1,683,7758,16,38,0.683316071,-1,2,0,0,1,678,8759,16,39,0.762247917,1,3,0,0,1,550,9760,16,40,0.764965294,1,2,0,0,1,655,10761,16,41,0.77749452,1,2,0,0,1,624,11762,16,42,0.794888535,1,3,0,0,1,617,12763,16,43,0.866538821,1,1,0,1,-1,737,11764,16,44,0.872718673,1,3,0,0,1,638,12765,16,45,0.785248516,1,2,1,0,-1,623,11766,16,46,0.727091858,-1,1,1,1,1,511,12767,16,47,0.612700118,1,2,0,0,1,629,13768,16,48,0.592259748,-1,1,1,1,1,679,14769,16,49,0.702641195,-1,3,1,0,-1,571,13770,16,50,0.518388789,1,1,1,1,1,599,14771,16,51,0.532545423,-1,2,1,0,-1,516,13772,16,52,0.501672869,-1,3,0,0,1,1369,14773,16,53,0.401373115,1,2,1,0,-1,781,13774,16,54,0.323754643,-1,3,0,0,1,508,14775,16,55,0.323571979,1,1,1,1,1,511,15776,16,56,0.192319321,-1,3,1,0,-1,665,14777,16,57,0.169143855,-1,2,0,0,1,579,15778,16,58,0.125832222,-1,1,1,1,1,548,16779,16,59,0.301366992,-1,2,1,0,-1,655,15780,16,60,0.232325194,-1,1,1,1,1,650,16781,17,1,0.406408041,-1,3,0,1,-1,2475,-3782,17,2,0.448237368,-1,1,1,0,-1,3662,-4783,17,3,0.431301613,1,2,1,1,1,4624,-3784,17,4,0.527906029,-1,1,1,0,-1,1831,-4785,17,5,0.517688391,-1,3,1,1,1,2220,-3786,17,6,0.464835439,-1,2,1,0,-1,863,-4787,17,7,0.554145857,-1,3,0,1,-1,1084,-5788,17,8,0.43116884,-1,2,0,1,-1,1671,-6789,17,9,0.45638344,-1,1,1,1,1,1464,-5790,17,10,0.523270092,1,2,0,1,-1,1078,-6791,17,11,0.543461907,1,3,1,1,1,752,-5792,17,12,0.623630359,-1,1,1,1,1,718,-4793,17,13,0.522381418,-1,3,0,1,-1,699,-5794,17,14,0.523550663,1,1,0,1,-1,475,-6795,17,15,0.415524917,1,2,0,1,-1,1304,-7796,17,16,0.322319338,-1,1,0,1,-1,1016,-8797,17,17,0.281763315,-1,3,0,0,1,630,-7798,17,18,0.343119205,1,2,0,1,-1,657,-8799,17,19,0.391085611,1,3,0,0,1,323,-7800,17,20,0.304857737,-1,2,0,0,1,270,-6801,17,21,0.210486546,-1,2,0,0,1,551,-5802,17,22,0.305974305,-1,3,1,0,-1,334,-6803,17,23,0.317238534,-1,1,1,1,1,300,-5804,17,24,0.252728397,-1,3,0,1,-1,275,-6805,17,25,0.241416004,-1,2,1,0,-1,573,-7806,17,26,0.17217236,-1,1,1,1,1,249,-6807,17,27,0.269260336,-1,2,0,1,-1,297,-7808,17,28,0.364128349,1,1,1,1,1,672,-6809,17,29,0.467232172,1,3,1,1,1,352,-5810,17,30,0.506652106,1,1,1,0,-1,462,-6811,17,31,0.53201957,1,2,0,0,1,263,-5812,17,32,0.551380127,-1,3,0,1,-1,324,-6813,17,33,0.649597288,1,2,0,0,1,1283,-5814,17,34,0.523859838,1,3,1,0,-1,272,-6815,17,35,0.4362579,1,1,1,0,-1,1197,-7816,17,36,0.409070408,-1,3,0,1,-1,307,-8817,17,37,0.429110004,1,2,1,1,1,328,-7818,17,38,0.438567532,1,1,1,1,1,348,-6819,17,39,0.516566817,1,2,1,1,1,336,-5820,17,40,0.489710096,-1,1,1,0,-1,373,-6821,17,41,0.408344946,1,1,1,1,1,347,-5822,17,42,0.441353087,-1,2,0,1,-1,376,-6823,17,43,0.505092688,1,3,0,1,-1,317,-7824,17,44,0.52504752,-1,2,1,1,1,641,-6825,17,45,0.593536328,-1,1,1,1,1,365,-5826,17,46,0.576440523,-1,3,0,1,-1,316,-6827,17,47,0.665964504,-1,1,0,0,1,351,-5828,17,48,0.768795386,1,3,0,0,1,401,-4829,17,49,0.781320149,-1,2,1,1,1,349,-3830,17,50,0.771096165,1,3,0,1,-1,355,-4831,17,51,0.67577202,-1,1,1,0,-1,231,-5832,17,52,0.653374043,1,2,1,1,1,294,-4833,17,53,0.718649654,1,1,0,1,-1,2188,-5834,17,54,0.772067116,1,2,1,1,1,350,-4835,17,55,0.817707524,1,3,0,1,-1,351,-5836,17,56,0.779218786,1,2,1,1,1,1311,-4837,17,57,0.741440258,1,1,0,0,1,2132,-3838,17,58,0.781743848,1,3,0,0,1,768,-2839,17,59,0.796598572,1,1,1,0,-1,380,-3840,17,60,0.778792405,-1,3,0,1,-1,485,-4841,18,1,0.550808748,1,3,0,1,-1,2038,-6842,18,2,0.545830056,1,1,1,1,1,7180,-5843,18,3,0.52593518,1,2,0,1,-1,1287,-6844,18,4,0.549234549,1,1,0,1,-1,2127,-7845,18,5,0.418704182,1,3,0,0,1,1495,-6846,18,6,0.384590961,1,2,0,1,-1,1196,-7847,18,7,0.488658164,1,3,0,0,1,1276,-6848,18,8,0.374978032,-1,2,1,0,-1,897,-7849,18,9,0.404752532,-1,1,1,1,1,1238,-6850,18,10,0.416791537,1,2,0,0,1,3417,-5851,18,11,0.326366947,-1,3,1,0,-1,1000,-6852,18,12,0.267207687,1,1,1,1,1,1169,-5853,18,13,0.221966044,1,3,0,0,1,1214,-4854,18,14,0.431186426,1,1,1,1,1,3162,-3855,18,15,0.544272739,-1,2,0,0,1,1282,-2856,18,16,0.531357186,-1,1,1,1,1,3554,-1857,18,17,0.489365276,-1,3,1,0,-1,1092,-2858,18,18,0.467492663,1,2,0,0,1,1117,-1859,18,19,0.549301293,1,3,0,0,1,908,0860,18,20,0.598434408,-1,2,1,0,-1,2547,-1861,18,21,0.670119139,1,2,1,0,-1,1527,-2862,18,22,0.768428297,-1,3,0,0,1,1050,-1863,18,23,0.830161677,1,1,0,1,-1,1155,-2864,18,24,0.802642767,-1,3,0,1,-1,3588,-3865,18,25,0.881260971,1,2,1,0,-1,2719,-4866,18,26,0.808378146,1,1,1,1,1,6693,-3867,18,27,0.845221256,1,2,0,1,-1,1797,-4868,18,28,0.796044394,1,1,1,1,1,1077,-3869,18,29,0.607733666,1,3,0,0,1,2588,-2870,18,30,0.646671576,1,1,1,1,1,1480,-1871,18,31,0.63503527,-1,2,1,1,1,1494,0872,18,32,0.629037964,1,3,0,0,1,1366,1873,18,33,0.483607716,1,2,0,1,-1,3875,0874,18,34,0.408731785,-1,3,1,0,-1,1520,-1875,18,35,0.478573784,1,1,0,1,-1,1894,-2876,18,36,0.503177364,-1,3,0,0,1,6499,-1877,18,37,0.47688776,-1,2,0,1,-1,1346,-2878,18,38,0.409416661,-1,1,0,1,-1,1319,-3879,18,39,0.309237839,-1,2,1,0,-1,900,-4880,18,40,0.34901668,-1,1,1,1,1,895,-3881,18,41,0.331218865,-1,1,1,1,1,1377,-2882,18,42,0.231454709,-1,2,0,1,-1,1304,-3883,18,43,0.276468606,1,3,1,0,-1,878,-4884,18,44,0.337351112,-1,2,1,1,1,1192,-3885,18,45,0.383876608,-1,1,1,1,1,45928,-2886,18,46,0.409084292,NaN,3,NaN,NaN,NaN,NaN,-2887,18,47,0.504278567,NaN,1,NaN,NaN,NaN,NaN,-2888,18,48,0.500674313,-1,3,1,1,1,2540,-1889,18,49,0.380141659,-1,2,1,1,1,1887,0890,18,50,0.234585765,-1,3,0,1,-1,3196,-1891,18,51,0.179326872,-1,1,1,1,1,888,0892,18,52,0.115962524,-1,2,0,1,-1,1879,-1893,18,53,0.25622044,-1,1,0,1,-1,737,-2894,18,54,0.417612145,1,2,1,0,-1,894,-3895,18,55,0.486973565,1,3,0,0,1,1128,-2896,18,56,0.595728796,1,2,1,0,-1,1115,-3897,18,57,0.618519614,NaN,1,NaN,NaN,NaN,NaN,-3898,18,58,0.630951883,NaN,3,NaN,NaN,NaN,NaN,-3899,18,59,0.748952901,NaN,1,NaN,NaN,NaN,NaN,-3900,18,60,0.764770562,1,3,0,1,-1,2267,-4901,19,1,0.4870323,-1,2,1,0,-1,1251,3902,19,2,0.469321084,-1,3,0,1,-1,1590,2903,19,3,0.427631465,1,1,1,0,-1,752,1904,19,4,0.404253703,1,3,1,1,1,746,2905,19,5,0.336359499,-1,2,0,1,-1,885,1906,19,6,0.401062652,1,1,1,0,-1,902,0907,19,7,0.336280428,1,2,0,1,-1,1225,-1908,19,8,0.340820158,-1,1,1,1,1,1036,0909,19,9,0.418808304,1,3,0,0,1,939,1910,19,10,0.388707257,-1,1,1,1,1,1245,2911,19,11,0.287274323,-1,2,1,0,-1,854,1912,19,12,0.330880503,-1,3,0,1,-1,1247,0913,19,13,0.473268063,1,2,1,0,-1,680,-1914,19,14,0.391787617,-1,3,0,0,1,69,0915,19,15,0.336031984,-1,1,0,1,-1,918,-1916,19,16,0.340858849,1,3,0,0,1,835,0917,19,17,0.30313119,-1,2,0,1,-1,1260,-1918,19,18,0.364663337,-1,1,1,1,1,940,0919,19,19,0.349087572,-1,2,1,0,-1,1061,-1920,19,20,0.410647636,-1,1,1,1,1,1364,0921,19,21,0.356812143,1,3,1,0,-1,864,-1922,19,22,0.325357629,1,1,1,1,1,935,0923,19,23,0.310186295,-1,2,0,0,1,902,1924,19,24,0.254415605,-1,1,1,1,1,1083,2925,19,25,0.240646099,1,3,0,1,-1,1418,1926,19,26,0.26786235,1,2,1,0,-1,1411,0927,19,27,0.221799176,-1,3,0,0,1,1123,1928,19,28,0.158923048,1,2,1,1,1,747,2929,19,29,0.302910368,-1,1,1,1,1,752,3930,19,30,0.510901715,1,2,0,1,-1,1060,2931,19,31,0.540741997,-1,3,0,0,1,852,3932,19,32,0.586884811,-1,1,1,1,1,1721,4933,19,33,0.729976852,1,3,0,0,1,973,5934,19,34,0.833268332,1,1,0,0,1,1296,6935,19,35,0.803471024,-1,2,1,1,1,939,7936,19,36,0.845698707,1,1,0,0,1,900,8937,19,37,0.802387064,1,3,0,0,1,1350,9938,19,38,0.881165718,1,2,0,1,-1,705,8939,19,39,0.880585997,-1,3,1,0,-1,1005,7940,19,40,0.840302901,1,2,0,1,-1,1021,6941,19,41,0.65097205,-1,1,0,0,1,948,7942,19,42,0.6265546,-1,2,0,1,-1,905,6943,19,43,0.605818133,1,3,0,0,1,815,7944,19,44,0.604369,1,2,0,0,1,1156,8945,19,45,0.606087838,-1,1,1,0,-1,1057,7946,19,46,0.588220155,1,3,0,0,1,731,8947,19,47,0.57811295,1,1,0,0,1,841,9948,19,48,0.511948706,1,3,0,0,1,788,10949,19,49,0.593840102,1,2,0,0,1,1406,11950,19,50,0.493282142,1,3,0,0,1,841,12951,19,51,0.415206153,-1,1,1,0,-1,797,11952,19,52,0.300748711,-1,2,1,1,1,1062,12953,19,53,0.477617589,-1,1,1,0,-1,754,11954,19,54,0.484610862,1,2,1,1,1,910,12955,19,55,0.412942507,1,3,0,0,1,1701,13956,19,56,0.461953537,-1,2,1,1,1,1037,14957,19,57,0.472109799,-1,1,1,1,1,1232,15958,19,58,0.509650021,-1,3,1,0,-1,846,14959,19,59,0.552005605,1,1,1,1,1,1071,15960,19,60,0.567674862,1,3,1,0,-1,849,14961,20,1,0.538936131,1,3,1,1,1,2233,1962,20,2,0.584911166,-1,1,0,0,1,1077,2963,20,3,0.592275704,1,2,0,0,1,793,3964,20,4,0.504025809,1,1,0,1,-1,550,2965,20,5,0.604472002,-1,3,0,1,-1,912,1966,20,6,0.453113052,-1,2,0,0,1,329,2967,20,7,0.32479251,1,3,0,0,1,279,3968,20,8,0.291557989,-1,2,1,0,-1,304,2969,20,9,0.315370277,-1,1,1,1,1,288,3970,20,10,0.281623953,-1,2,1,1,1,306,4971,20,11,0.255220407,-1,3,0,0,1,110,5972,20,12,0.313532681,1,1,1,1,1,95,6973,20,13,0.27941748,-1,3,0,0,1,369,7974,20,14,0.308963726,-1,1,1,0,-1,79,6975,20,15,0.25614047,-1,2,1,1,1,306,7976,20,16,0.132099509,-1,1,1,1,1,78,8977,20,17,0.15437588,1,3,0,0,1,280,9978,20,18,0.173244225,-1,2,1,1,1,329,10979,20,19,0.128811332,-1,3,0,1,-1,54,9980,20,20,0.351648118,-1,2,1,1,1,457,10981,20,21,0.249757251,1,1,0,0,1,367,11982,20,22,0.323480836,-1,2,1,1,1,734,12983,20,23,0.28815139,-1,3,1,0,-1,378,11984,20,24,0.254180386,-1,2,0,0,1,512,12985,20,25,0.205478521,-1,1,0,1,-1,318,11986,20,26,0.356628547,1,3,1,1,1,111,12987,20,27,0.347857394,-1,1,1,1,1,80,13988,20,28,0.207887249,-1,3,1,0,-1,128,12989,20,29,0.248453283,-1,2,0,0,1,152,13990,20,30,0.399178997,1,3,0,1,-1,289,12991,20,31,0.512860073,-1,1,0,1,-1,312,11992,20,32,0.463497857,-1,2,0,0,1,320,12993,20,33,0.495275936,-1,1,1,0,-1,159,11994,20,34,0.486591288,1,2,0,1,-1,266,10995,20,35,0.522858704,-1,3,0,1,-1,408,9996,20,36,0.532522706,1,2,0,0,1,1000,10997,20,37,0.567851119,-1,1,1,0,-1,238,9998,20,38,0.646062964,1,3,0,0,1,712,10999,20,39,0.593307359,1,1,1,0,-1,336,91000,20,40,0.591701995,-1,3,0,1,-1,224,81001,20,41,0.490209358,1,2,1,0,-1,248,71002,20,42,0.537061446,-1,3,0,1,-1,79,61003,20,43,0.460368792,1,1,1,1,1,401,71004,20,44,0.592162966,-1,3,1,0,-1,559,61005,20,45,0.603135961,1,2,1,1,1,367,71006,20,46,0.661096269,1,1,1,1,1,689,81007,20,47,0.73578736,-1,2,0,0,1,920,91008,20,48,0.730181152,1,1,1,1,1,911,101009,20,49,0.748046057,1,3,0,0,1,1569,111010,20,50,0.610432403,1,1,1,1,1,742,121011,20,51,0.683224448,1,2,0,0,1,825,131012,20,52,0.649122377,-1,3,0,0,1,976,141013,20,53,0.739138312,1,2,1,0,-1,1126,131014,20,54,0.692856069,1,3,0,0,1,1584,141015,20,55,0.749025085,-1,1,1,1,1,657,151016,20,56,0.810586693,1,3,0,0,1,928,161017,20,57,0.814240652,1,2,0,1,-1,1166,151018,20,58,0.760069786,1,1,1,1,1,559,161019,20,59,0.815103336,1,2,1,0,-1,792,151020,20,60,0.777070835,-1,1,1,1,1,711,161021,22,1,0.498248322,1,2,1,0,-1,1562,91022,22,2,0.442040029,1,3,1,0,-1,1227,81023,22,3,0.524404429,-1,1,1,0,-1,657,71024,22,4,0.550589131,1,3,0,1,-1,650,61025,22,5,0.623905551,1,2,1,0,-1,347,51026,22,6,0.611056146,-1,1,0,1,-1,1210,41027,22,7,0.478274979,1,2,1,1,1,1523,51028,22,8,0.522727709,1,1,1,0,-1,395,41029,22,9,0.598957573,-1,3,0,0,1,766,51030,22,10,0.495442849,1,1,1,1,1,1002,61031,22,11,0.465611634,-1,2,0,1,-1,763,51032,22,12,0.425863042,1,3,1,0,-1,876,41033,22,13,0.431448501,-1,2,1,1,1,1872,51034,22,14,0.426236087,-1,3,0,0,1,1067,61035,22,15,0.491186557,1,1,1,0,-1,1160,51036,22,16,0.412041784,-1,3,1,0,-1,895,41037,22,17,0.400085114,-1,2,1,1,1,498,51038,22,18,0.388172133,-1,1,1,1,1,839,61039,22,19,0.40457204,1,2,0,1,-1,873,51040,22,20,0.411646915,1,1,1,1,1,831,61041,22,21,0.419415344,-1,1,0,1,-1,720,51042,22,22,0.35945254,-1,2,0,1,-1,1247,41043,22,23,0.323051841,-1,3,0,0,1,768,51044,22,24,0.286091797,-1,2,0,0,1,676,61045,22,25,0.132803595,-1,1,1,1,1,710,71046,22,26,0.207870446,-1,3,0,0,1,488,81047,22,27,0.128708732,1,1,1,1,1,1196,91048,22,28,0.208273625,-1,3,0,0,1,712,101049,22,29,0.236636386,1,2,0,0,1,610,111050,22,30,0.288634529,-1,3,0,0,1,728,121051,22,31,0.352019385,1,1,0,1,-1,610,111052,22,32,0.301943573,-1,2,0,1,-1,645,101053,22,33,0.383285722,1,1,1,1,1,780,111054,22,34,0.414380053,-1,2,1,0,-1,1173,101055,22,35,0.474658794,1,3,0,0,1,708,111056,22,36,0.392146691,-1,2,0,0,1,2000,121057,22,37,0.573418204,1,1,0,1,-1,494,111058,22,38,0.522329337,1,3,0,0,1,686,121059,22,39,0.612355795,1,1,1,1,1,802,131060,22,40,0.576187716,-1,3,1,0,-1,693,121061,22,41,0.532808437,-1,3,0,0,1,882,131062,22,42,0.4778756,-1,1,0,1,-1,713,121063,22,43,0.501456936,1,2,1,1,1,694,131064,22,44,0.585556568,1,1,1,1,1,1753,141065,22,45,0.481584504,1,3,0,0,1,537,151066,22,46,0.520452007,1,2,1,0,-1,886,141067,22,47,0.597052037,1,3,1,1,1,462,151068,22,48,0.606676531,-1,2,0,1,-1,732,141069,22,49,0.679861703,-1,1,1,1,1,357,151070,22,50,0.637480261,-1,2,1,0,-1,749,141071,22,51,0.669176727,-1,3,0,0,1,682,151072,22,52,0.703277308,-1,1,1,1,1,776,161073,22,53,0.704681728,1,3,0,0,1,607,171074,22,54,0.797760102,1,1,1,1,1,644,181075,22,55,0.68502851,1,2,0,1,-1,306,171076,22,56,0.64182045,1,1,1,1,1,552,181077,22,57,0.694766299,1,3,0,0,1,365,191078,22,58,0.784068907,-1,2,0,0,1,423,201079,22,59,0.770446878,-1,3,0,0,1,564,211080,22,60,0.849447053,1,2,1,0,-1,705,201081,23,1,0.456188269,-1,3,0,0,1,1295,91082,23,2,0.639282953,-1,1,1,0,-1,405,81083,23,3,0.516278535,1,2,1,0,-1,1337,71084,23,4,0.500713475,1,1,1,0,-1,802,61085,23,5,0.544078097,1,3,0,1,-1,825,51086,23,6,0.545020044,-1,2,1,1,1,373,61087,23,7,0.541513679,1,3,0,1,-1,351,51088,23,8,0.542981631,1,2,0,0,1,378,61089,23,9,0.630984715,-1,1,0,0,1,513,71090,23,10,0.559257172,-1,2,1,0,-1,370,61091,23,11,0.678157665,-1,3,1,1,1,155,71092,23,12,0.710626489,1,1,1,1,1,464,81093,23,13,0.756480915,1,3,1,1,1,425,91094,23,14,0.770064868,1,1,0,0,1,367,101095,23,15,0.571364341,1,2,1,0,-1,110,91096,23,16,0.615964533,-1,1,1,0,-1,318,81097,23,17,0.682255473,1,3,1,1,1,281,91098,23,18,0.624283699,1,2,1,1,1,326,101099,23,19,0.659016664,1,3,0,0,1,325,111100,23,20,0.649436567,1,2,0,1,-1,368,101101,23,21,0.577605233,1,2,1,0,-1,343,91102,23,22,0.623019762,1,3,1,0,-1,319,81103,23,23,0.696138367,1,1,1,0,-1,335,71104,23,24,0.485952775,1,3,0,1,-1,344,61105,23,25,0.423115529,-1,2,1,1,1,285,71106,23,26,0.572553839,1,1,1,1,1,480,81107,23,27,0.54897568,1,2,0,0,1,447,91108,23,28,0.55188492,1,1,1,0,-1,505,81109,23,29,0.471752195,1,3,0,0,1,453,91110,23,30,0.457218151,-1,1,1,1,1,468,101111,23,31,0.511396803,-1,2,0,1,-1,828,91112,23,32,0.499532077,-1,3,0,0,1,397,101113,23,33,0.538400888,1,2,1,1,1,862,111114,23,34,0.506766357,1,3,0,0,1,893,121115,23,35,0.474588872,1,1,1,0,-1,1297,111116,23,36,0.447589284,1,3,0,1,-1,748,101117,23,37,0.335728281,-1,2,1,0,-1,1350,91118,23,38,0.420019084,-1,1,1,0,-1,752,81119,23,39,0.343154728,1,2,0,1,-1,1112,71120,23,40,0.28091938,-1,1,1,1,1,705,81121,23,41,0.218607087,-1,1,1,1,1,513,91122,23,42,0.226746073,1,2,0,1,-1,1121,81123,23,43,0.124843323,1,3,0,0,1,597,91124,23,44,0.152094992,-1,2,0,1,-1,488,81125,23,45,0.280707232,-1,1,1,1,1,750,91126,23,46,0.196682601,-1,3,0,0,1,462,101127,23,47,0.272385549,-1,1,1,1,1,935,111128,23,48,0.221389887,-1,3,1,0,-1,568,101129,23,49,0.233332521,-1,2,0,1,-1,515,91130,23,50,0.141278586,NaN,3,NaN,NaN,NaN,NaN,91131,23,51,0.318241421,-1,1,0,1,-1,4780,81132,23,52,0.355709192,-1,2,1,1,1,547,91133,23,53,0.30375616,1,1,1,0,-1,429,81134,23,54,0.36108507,-1,2,0,1,-1,675,71135,23,55,0.471054032,-1,3,0,1,-1,497,61136,23,56,0.51137723,-1,2,0,0,1,621,71137,23,57,0.500457939,-1,1,0,0,1,531,81138,23,58,0.369876196,-1,3,0,0,1,380,91139,23,59,0.293704862,-1,1,0,0,1,318,101140,23,60,0.360535427,-1,3,0,0,1,343,111141,24,1,0.41772649,-1,1,0,1,-1,2081,21142,24,2,0.313764263,-1,2,1,0,-1,1305,11143,24,3,0.298283764,1,3,0,1,-1,758,01144,24,4,0.317023291,1,2,1,1,1,856,11145,24,5,0.516138362,1,1,1,1,1,533,21146,24,6,0.569112981,-1,3,1,1,1,562,31147,24,7,0.451356912,-1,1,1,0,-1,1228,21148,24,8,0.467079281,1,3,1,1,1,1206,31149,24,9,0.455912376,1,2,0,0,1,1346,41150,24,10,0.452353561,-1,3,1,1,1,680,51151,24,11,0.419884589,1,1,1,1,1,1503,61152,24,12,0.484656366,1,2,0,0,1,1222,71153,24,13,0.514971915,1,1,1,1,1,1014,81154,24,14,0.474044185,-1,2,1,0,-1,917,71155,24,15,0.446356241,1,3,0,1,-1,1470,61156,24,16,0.354508481,-1,2,1,0,-1,1094,51157,24,17,0.23631324,-1,1,1,1,1,492,61158,24,18,0.194575175,1,3,0,1,-1,825,51159,24,19,0.137987597,-1,1,0,1,-1,795,41160,24,20,0.278709271,1,3,0,1,-1,768,31161,24,21,0.335218354,-1,2,0,0,1,1414,41162,24,22,0.309564747,1,3,0,1,-1,793,31163,24,23,0.407485937,-1,1,1,1,1,2168,41164,24,24,0.53024945,1,3,0,0,1,669,51165,24,25,0.4933754,1,2,1,0,-1,1544,41166,24,26,0.434930619,-1,1,1,1,1,1190,51167,24,27,0.577071895,-1,2,0,0,1,1704,61168,24,28,0.607648108,1,1,0,0,1,3248,71169,24,29,0.649868265,1,3,0,0,1,1501,81170,24,30,0.625847303,-1,1,0,1,-1,1108,71171,24,31,0.575072718,1,2,1,0,-1,1966,61172,24,32,0.562624586,-1,3,0,1,-1,2066,51173,24,33,0.616425528,-1,2,1,0,-1,419,41174,24,34,0.571656033,1,3,1,0,-1,315,31175,24,35,0.520772816,1,1,1,1,1,2051,41176,24,36,0.649701993,1,3,0,0,1,985,51177,24,37,0.629641694,1,2,0,0,1,3764,61178,24,38,0.677286141,1,1,1,1,1,890,71179,24,39,0.527991171,-1,2,1,1,1,1392,81180,24,40,0.586795095,1,1,1,1,1,2085,91181,24,41,0.610910858,1,3,0,0,1,1083,101182,24,42,0.683694479,1,1,0,1,-1,1246,91183,24,43,0.672522692,1,2,0,0,1,1238,101184,24,44,0.737036295,1,1,1,1,1,780,111185,24,45,0.889865394,1,3,0,0,1,747,121186,24,46,0.839241132,-1,2,0,0,1,1175,131187,24,47,0.719081817,1,3,0,0,1,1025,141188,24,48,0.798616802,1,2,1,0,-1,3703,131189,24,49,0.762536076,1,1,1,1,1,981,141190,24,50,0.629864475,-1,2,0,0,1,876,151191,24,51,0.482195586,1,3,1,0,-1,1722,141192,24,52,0.582389399,1,1,1,1,1,991,151193,24,53,0.52031732,-1,3,0,0,1,1016,161194,24,54,0.535040477,-1,1,1,1,1,1487,171195,24,55,0.42159264,-1,2,0,0,1,811,181196,24,56,0.372562119,-1,1,1,1,1,814,191197,24,57,0.34463597,-1,3,0,0,1,739,201198,24,58,0.428444829,1,2,1,0,-1,2327,191199,24,59,0.523456389,-1,3,0,0,1,1015,201200,24,60,0.461992236,-1,2,0,0,1,1691,211201,25,1,0.418310816,-1,2,1,1,1,1622,71202,25,2,0.407501574,1,3,1,1,1,1210,81203,25,3,0.435661107,-1,1,1,1,1,1003,91204,25,4,0.480527059,-1,3,0,1,-1,1076,81205,25,5,0.491489511,-1,2,0,1,-1,1212,71206,25,6,0.556501298,-1,1,0,1,-1,1714,61207,25,7,0.590365634,1,2,1,1,1,1226,71208,25,8,0.509611221,1,1,1,1,1,969,81209,25,9,0.418878862,1,3,0,1,-1,1909,71210,25,10,0.342319472,-1,1,1,1,1,985,81211,25,11,0.331495104,-1,2,0,1,-1,959,71212,25,12,0.303763623,-1,3,1,0,-1,1056,61213,25,13,0.17543745,-1,2,0,1,-1,2148,51214,25,14,0.28925671,-1,3,1,1,1,877,61215,25,15,0.40811648,-1,1,1,1,1,849,71216,25,16,0.25326452,-1,3,0,1,-1,214,61217,25,17,0.317756374,-1,2,1,1,1,996,71218,25,18,0.380873714,-1,1,1,1,1,987,81219,25,19,0.313198436,-1,2,1,1,1,737,91220,25,20,0.380209426,-1,1,1,1,1,990,101221,25,21,0.446464061,-1,1,0,1,-1,931,91222,25,22,0.54924345,-1,2,1,1,1,886,101223,25,23,0.475122731,-1,3,1,0,-1,840,91224,25,24,0.479097942,-1,2,1,1,1,816,101225,25,25,0.387280583,-1,1,1,1,1,885,111226,25,26,0.359166899,-1,3,0,0,1,1000,121227,25,27,0.365157332,-1,1,1,1,1,906,131228,25,28,0.281425191,1,3,0,0,1,938,141229,25,29,0.377769321,-1,2,0,1,-1,861,131230,25,30,0.266888935,-1,3,0,0,1,902,141231,25,31,0.300001426,-1,1,0,1,-1,831,131232,25,32,0.238494258,-1,2,0,1,-1,868,121233,25,33,0.360311088,1,1,0,1,-1,916,111234,25,34,0.37227093,-1,2,0,1,-1,1052,101235,25,35,0.367961825,-1,3,0,0,1,885,111236,25,36,0.449482424,-1,2,1,0,-1,901,101237,25,37,0.484039729,-1,1,1,0,-1,682,91238,25,38,0.494576241,1,3,0,0,1,784,101239,25,39,0.590715249,1,1,1,1,1,603,111240,25,40,0.580147208,1,3,0,0,1,846,121241,25,41,0.580221249,-1,3,0,0,1,805,131242,25,42,0.574638985,-1,1,0,1,-1,799,121243,25,43,0.628257865,1,2,0,1,-1,858,111244,25,44,0.745574578,-1,1,1,1,1,1026,121245,25,45,0.763829533,-1,3,0,0,1,806,131246,25,46,0.865001885,1,2,1,1,1,770,141247,25,47,0.798275025,1,3,0,0,1,848,151248,25,48,0.875251142,1,2,1,1,1,858,161249,25,49,0.782768916,-1,1,1,1,1,923,171250,25,50,0.883027847,1,2,1,1,1,859,181251,25,51,0.851669647,1,3,1,0,-1,817,171252,25,52,0.830323239,1,1,1,1,1,670,181253,25,53,0.868431043,1,3,0,0,1,852,191254,25,54,0.863514561,1,1,1,1,1,769,201255,25,55,0.86192203,1,2,0,1,-1,825,191256,25,56,0.859254382,1,1,1,1,1,733,201257,25,57,0.854737963,1,3,0,0,1,732,211258,25,58,0.873915314,1,2,0,1,-1,931,201259,25,59,0.871806812,1,3,0,0,1,743,211260,25,60,0.762589507,1,2,0,1,-1,684,201261,26,1,0.514265072,-1,2,0,0,1,1171,31262,26,2,0.406441083,-1,3,1,0,-1,776,21263,26,3,0.474063032,1,1,1,1,1,287,31264,26,4,0.46205984,1,3,1,1,1,503,41265,26,5,0.453390807,-1,2,1,0,-1,1208,31266,26,6,0.484030128,-1,1,1,1,1,784,41267,26,7,0.491440892,-1,2,1,0,-1,351,31268,26,8,0.54137018,1,1,1,0,-1,344,21269,26,9,0.539070472,1,3,1,1,1,296,31270,26,10,0.478532848,1,1,1,1,1,312,41271,26,11,0.512248279,-1,2,0,1,-1,279,31272,26,12,0.45054277,-1,3,0,0,1,287,41273,26,13,0.495765121,-1,2,1,1,1,304,51274,26,14,0.555342568,1,3,0,1,-1,342,41275,26,15,0.675560103,-1,1,1,1,1,447,51276,26,16,0.71196555,-1,3,0,0,1,688,61277,26,17,0.741987286,1,2,0,1,-1,592,51278,26,18,0.712146183,1,1,1,0,-1,336,41279,26,19,0.744706473,1,2,0,0,1,351,51280,26,20,0.817164473,1,1,1,1,1,496,61281,26,21,0.871738811,1,1,1,0,-1,336,51282,26,22,0.805767961,1,2,1,0,-1,304,41283,26,23,0.806293652,1,3,0,1,-1,177,31284,26,24,0.843222936,-1,2,0,1,-1,264,21285,26,25,0.871484333,1,1,0,0,1,263,31286,26,26,0.809624851,1,3,0,1,-1,408,21287,26,27,0.77180559,1,1,0,0,1,984,31288,26,28,0.635458125,-1,3,0,0,1,423,41289,26,29,0.661757759,-1,2,0,1,-1,417,31290,26,30,0.754199976,1,3,0,1,-1,312,21291,26,31,0.774686425,-1,1,1,0,-1,287,11292,26,32,0.654561416,1,2,1,0,-1,329,01293,26,33,0.513702973,1,1,1,1,1,446,11294,26,34,0.455292213,-1,2,0,1,-1,265,01295,26,35,0.365867102,-1,3,0,0,1,1278,11296,26,36,0.336256702,-1,2,1,0,-1,361,01297,26,37,0.333858449,-1,1,1,0,-1,1608,-11298,26,38,0.322923361,-1,3,0,1,-1,376,-21299,26,39,0.23744776,-1,1,1,1,1,335,-11300,26,40,0.333211775,-1,3,0,0,1,400,01301,26,41,0.269695868,-1,3,0,1,-1,560,-11302,26,42,0.332702584,-1,1,0,0,1,376,01303,26,43,0.276246594,-1,2,0,0,1,279,11304,26,44,0.293733774,-1,1,1,1,1,407,21305,26,45,0.242763791,-1,3,1,0,-1,1008,11306,26,46,0.290536178,1,2,1,1,1,2392,21307,26,47,0.289118568,1,3,0,1,-1,623,11308,26,48,0.222589267,-1,2,1,0,-1,960,01309,26,49,0.247969221,-1,1,0,0,1,376,11310,26,50,0.317446617,1,2,0,1,-1,2120,01311,26,51,0.289174018,-1,3,0,0,1,311,11312,26,52,0.290667251,-1,1,1,0,-1,2311,01313,26,53,0.255173384,-1,3,0,0,1,2864,11314,26,54,0.178663686,-1,1,1,0,-1,887,01315,26,55,0.240507804,-1,2,1,1,1,471,11316,26,56,0.212505989,-1,1,0,1,-1,447,01317,26,57,0.212323592,-1,3,1,0,-1,287,-11318,26,58,0.13516987,-1,2,0,0,1,392,01319,26,59,0.262089462,-1,3,0,1,-1,520,-11320,26,60,0.260028623,-1,2,1,1,1,735,01321,28,1,0.426160874,-1,2,0,1,-1,1023,51322,28,2,0.547307483,-1,3,0,0,1,910,61323,28,3,0.57625844,1,1,1,1,1,703,71324,28,4,0.530574846,-1,3,0,0,1,1165,81325,28,5,0.594922958,1,2,1,0,-1,820,71326,28,6,0.689792962,1,1,0,1,-1,445,61327,28,7,0.679957019,-1,2,1,1,1,827,71328,28,8,0.714238362,-1,1,1,1,1,743,81329,28,9,0.649412918,1,3,0,0,1,425,91330,28,10,0.756832329,1,1,1,1,1,433,101331,28,11,0.754428257,-1,2,1,0,-1,461,91332,28,12,0.809170045,-1,3,0,0,1,559,101333,28,13,0.838368119,1,2,1,1,1,786,111334,28,14,0.813746816,1,3,0,0,1,698,121335,28,15,0.721216547,1,1,1,1,1,610,131336,28,16,0.698608739,1,3,0,0,1,874,141337,28,17,0.675329541,1,2,0,1,-1,1231,131338,28,18,0.668541392,1,1,0,1,-1,489,121339,28,19,0.730554197,1,2,0,1,-1,801,111340,28,20,0.668364151,1,1,1,0,-1,455,101341,28,21,0.591656594,1,3,1,1,1,1028,111342,28,22,0.61801654,1,1,0,1,-1,688,101343,28,23,0.631342804,-1,2,1,0,-1,941,91344,28,24,0.596796661,1,1,1,1,1,469,101345,28,25,0.566000251,-1,3,1,1,1,929,111346,28,26,0.539945752,-1,2,1,1,1,790,121347,28,27,0.518999408,1,3,0,0,1,745,131348,28,28,0.46995104,-1,2,0,1,-1,837,121349,28,29,0.456068661,-1,1,1,1,1,557,131350,28,30,0.50800524,-1,2,1,0,-1,896,121351,28,31,0.446087604,1,3,1,0,-1,710,111352,28,32,0.374390543,-1,1,1,1,1,603,121353,28,33,0.338306469,1,3,0,1,-1,725,111354,28,34,0.452318179,-1,1,1,1,1,349,121355,28,35,0.437383448,1,2,0,0,1,937,131356,28,36,0.485780893,1,1,1,1,1,580,141357,28,37,0.506223464,1,3,1,0,-1,794,131358,28,38,0.399735885,1,2,0,1,-1,1160,121359,28,39,0.334859606,-1,3,0,1,-1,598,111360,28,40,0.265990179,-1,2,0,0,1,1186,121361,28,41,0.28332388,-1,1,1,1,1,633,131362,28,42,0.270864323,-1,2,1,1,1,902,141363,28,43,0.382573815,-1,3,0,0,1,582,151364,28,44,0.360659118,-1,2,0,1,-1,739,141365,28,45,0.492684851,1,1,0,1,-1,355,131366,28,46,0.365316497,-1,3,0,0,1,956,141367,28,47,0.366325018,-1,1,0,1,-1,468,131368,28,48,0.385856674,1,3,1,0,-1,830,121369,28,49,0.419579487,-1,2,0,1,-1,477,111370,28,50,0.414301282,1,3,0,1,-1,1116,101371,28,51,0.276178909,-1,1,1,1,1,639,111372,28,52,0.219148257,-1,2,1,1,1,832,121373,28,53,0.332969705,-1,1,1,1,1,713,131374,28,54,0.364866893,1,2,0,1,-1,1023,121375,28,55,0.422341675,-1,3,0,1,-1,1293,111376,28,56,0.331863977,-1,2,1,0,-1,1050,101377,28,57,0.266137602,-1,1,1,1,1,332,111378,28,58,0.203031242,-1,3,0,0,1,1060,121379,28,59,0.365379331,-1,1,1,1,1,772,131380,28,60,0.343348677,-1,3,0,0,1,709,141381,29,1,0.591726696,1,1,1,1,1,2123,131382,29,2,0.622358969,-1,2,1,1,1,1522,141383,29,3,0.63150453,1,3,0,0,1,1353,151384,29,4,0.666417877,1,2,0,1,-1,1106,141385,29,5,0.701582378,-1,1,0,1,-1,746,131386,29,6,0.608623052,1,3,0,1,-1,613,121387,29,7,0.541923728,1,1,1,1,1,2544,131388,29,8,0.514111337,-1,3,1,1,1,937,141389,29,9,0.470336248,1,2,0,1,-1,1036,131390,29,10,0.524439999,-1,3,0,1,-1,1307,121391,29,11,0.549821504,-1,1,0,1,-1,506,111392,29,12,0.578300024,-1,2,0,0,1,3400,121393,29,13,0.445897414,-1,1,1,0,-1,599,111394,29,14,0.260630331,1,2,1,0,-1,388,101395,29,15,0.225507033,-1,3,0,0,1,1005,111396,29,16,0.233778781,-1,2,0,1,-1,396,101397,29,17,0.227847388,-1,1,0,0,1,101,111398,29,18,0.20607035,NaN,3,NaN,NaN,NaN,NaN,111399,29,19,0.181355299,-1,1,1,0,-1,977,101400,29,20,0.241454485,1,3,0,1,-1,466,91401,29,21,0.288318234,-1,2,1,1,1,313,101402,29,22,0.206714658,-1,3,1,0,-1,725,91403,29,23,0.169527941,-1,1,1,1,1,346,101404,29,24,0.115093593,-1,3,0,1,-1,680,91405,29,25,0.171765336,-1,2,1,1,1,1529,101406,29,26,0.236766903,1,1,1,1,1,725,111407,29,27,0.253290662,-1,2,0,1,-1,757,101408,29,28,0.25344242,1,1,0,1,-1,611,91409,29,29,0.192778834,-1,3,1,0,-1,808,81410,29,30,0.148570786,NaN,1,NaN,NaN,NaN,NaN,81411,29,31,0.125073339,-1,2,1,1,1,410,91412,29,32,0.152029335,-1,3,0,1,-1,430,81413,29,33,0.211164585,-1,2,1,1,1,457,91414,29,34,0.23982119,-1,3,0,0,1,449,101415,29,35,0.445004446,1,1,1,1,1,424,111416,29,36,0.353818006,-1,3,0,0,1,566,121417,29,37,0.580027063,1,2,0,1,-1,2601,111418,29,38,0.613185722,1,1,1,1,1,660,121419,29,39,0.593119167,1,2,1,1,1,1691,131420,29,40,0.621789216,-1,1,1,1,1,537,141421,29,41,0.656663315,NaN,3,NaN,NaN,NaN,NaN,141422,29,42,0.725401342,1,1,1,1,1,851,151423,29,43,0.633814518,1,2,0,1,-1,2845,141424,29,44,0.593600493,-1,1,1,1,1,3447,151425,29,45,0.623873412,1,3,0,0,1,2475,161426,29,46,0.734651667,1,2,0,1,-1,4367,151427,29,47,0.666590686,-1,3,0,0,1,4808,161428,29,48,0.70815482,1,2,0,1,-1,706,151429,29,49,0.641794194,1,1,1,1,1,568,161430,29,50,0.846505262,-1,2,1,0,-1,472,151431,29,51,0.830311463,1,3,1,0,-1,610,141432,29,52,0.860152394,1,1,1,1,1,526,151433,29,53,0.774908853,1,3,0,0,1,1135,161434,29,54,0.723535909,1,1,0,1,-1,714,151435,29,55,0.709802333,-1,2,1,0,-1,1088,141436,29,56,0.559118783,-1,1,1,1,1,619,151437,29,57,0.438978285,-1,3,1,0,-1,555,141438,29,58,0.289134622,-1,2,0,0,1,1198,151439,29,59,0.326931299,1,3,0,0,1,816,161440,29,60,0.381559106,1,2,1,1,1,1027,171441,30,1,0.409685085,1,2,0,1,-1,1276,-31442,30,2,0.409149403,1,3,0,1,-1,918,-41443,30,3,0.415323277,1,1,1,1,1,1144,-31444,30,4,0.535691995,-1,3,0,0,1,945,-21445,30,5,0.58764004,-1,2,0,0,1,808,-11446,30,6,0.66419086,1,1,1,1,1,760,01447,30,7,0.550301234,-1,2,1,0,-1,908,-11448,30,8,0.648547951,-1,1,1,1,1,1258,01449,30,9,0.619457038,1,3,0,0,1,1235,11450,30,10,0.786484143,-1,1,1,1,1,885,21451,30,11,0.833639867,1,2,0,0,1,1038,31452,30,12,0.860542315,1,3,0,0,1,1032,41453,30,13,0.823751658,1,2,0,0,1,902,51454,30,14,0.843187268,1,3,0,0,1,671,61455,30,15,0.814675088,1,1,1,1,1,1060,71456,30,16,0.829270434,1,3,0,0,1,1947,81457,30,17,0.863466721,1,2,1,0,-1,697,71458,30,18,0.867644315,-1,1,1,1,1,747,81459,30,19,0.85113926,1,2,1,0,-1,759,71460,30,20,0.845306296,-1,1,1,1,1,718,81461,30,21,0.890866302,1,1,1,1,1,934,91462,30,22,0.849895796,1,2,0,1,-1,1469,81463,30,23,0.809173005,1,3,0,0,1,850,91464,30,24,0.766582042,1,2,1,0,-1,678,81465,30,25,0.659968386,-1,1,1,1,1,666,91466,30,26,0.64119955,1,3,1,0,-1,944,81467,30,27,0.622464367,1,1,1,1,1,916,91468,30,28,0.503577915,-1,3,0,1,-1,1343,81469,30,29,0.528758683,1,2,0,0,1,2017,91470,30,30,0.507697139,-1,3,1,0,-1,678,81471,30,31,0.527900593,-1,1,0,1,-1,642,71472,30,32,0.350618695,-1,2,1,0,-1,3338,61473,30,33,0.437417727,-1,1,0,1,-1,673,51474,30,34,0.469103372,1,2,0,0,1,1100,61475,30,35,0.46367256,-1,3,1,0,-1,1026,51476,30,36,0.360679597,-1,2,1,0,-1,1604,41477,30,37,0.371203596,-1,1,0,1,-1,2703,31478,30,38,0.332738892,-1,3,0,0,1,813,41479,30,39,0.252758247,-1,1,0,1,-1,649,31480,30,40,0.198330215,NaN,3,NaN,NaN,NaN,NaN,31481,30,41,0.180122137,1,3,0,0,1,1486,41482,30,42,0.145860495,-1,1,0,1,-1,642,31483,30,43,0.153172642,1,2,1,0,-1,970,21484,30,44,0.213543161,-1,1,1,1,1,609,31485,30,45,0.194520872,-1,3,0,0,1,524,41486,30,46,0.249650906,-1,2,1,0,-1,763,31487,30,47,0.238244662,-1,3,0,0,1,1053,41488,30,48,0.199385186,-1,2,0,0,1,547,51489,30,49,0.117746857,-1,1,1,1,1,650,61490,30,50,0.153959639,-1,2,0,0,1,505,71491,30,51,0.116243056,-1,3,0,0,1,2282,81492,30,52,0.154900865,-1,1,1,1,1,843,91493,30,53,0.152388299,-1,3,1,0,-1,777,81494,30,54,0.21808069,-1,1,1,1,1,536,91495,30,55,0.142803791,-1,2,1,0,-1,470,81496,30,56,0.276636974,-1,1,1,1,1,476,91497,30,57,0.279364227,NaN,3,NaN,NaN,NaN,NaN,91498,30,58,0.225147345,-1,2,1,0,-1,1219,81499,30,59,0.18739325,1,3,0,0,1,657,91500,30,60,0.198492663,-1,2,0,0,1,607,101501,31,1,0.532887849,1,3,0,1,-1,1764,61502,31,2,0.617442005,-1,1,1,1,1,1816,71503,31,3,0.69653923,1,2,1,0,-1,1709,61504,31,4,0.700499125,1,1,1,1,1,902,71505,31,5,0.644735276,-1,3,0,0,1,1360,81506,31,6,0.580684941,-1,2,1,1,1,1254,91507,31,7,0.626149387,1,3,0,0,1,1041,101508,31,8,0.704162946,-1,2,0,1,-1,1546,91509,31,9,0.762659988,-1,1,0,1,-1,834,81510,31,10,0.719183424,1,2,1,1,1,1097,91511,31,11,0.639729527,-1,3,1,0,-1,1032,81512,31,12,0.583872256,1,1,1,1,1,743,91513,31,13,0.703480168,1,3,0,1,-1,1202,81514,31,14,0.777470676,1,1,1,1,1,829,91515,31,15,0.84722796,1,2,1,1,1,1030,101516,31,16,0.858617853,1,1,1,1,1,761,111517,31,17,0.857947385,-1,3,0,0,1,766,121518,31,18,0.842676618,1,2,0,1,-1,831,111519,31,19,0.813340174,1,3,0,0,1,867,121520,31,20,0.734922205,-1,2,0,1,-1,2717,111521,31,21,0.75586968,-1,1,0,1,-1,492,101522,31,22,0.876619851,1,2,0,0,1,835,111523,31,23,0.840157225,-1,3,0,0,1,567,121524,31,24,0.763535217,1,2,1,0,-1,835,111525,31,25,0.679931288,1,1,1,1,1,843,121526,31,26,0.641367565,1,3,0,0,1,699,131527,31,27,0.541352887,-1,1,1,1,1,764,141528,31,28,0.469432522,-1,3,0,0,1,1021,151529,31,29,0.424916879,1,2,0,1,-1,2004,141530,31,30,0.42025619,1,3,1,0,-1,2410,131531,31,31,0.410678567,-1,1,1,1,1,477,141532,31,32,0.501036489,-1,2,1,0,-1,963,131533,31,33,0.403260422,1,1,1,1,1,778,141534,31,34,0.405362463,-1,2,1,1,1,825,151535,31,35,0.410866376,1,3,0,0,1,600,161536,31,36,0.520815852,1,2,0,1,-1,1137,151537,31,37,0.485016901,-1,1,0,1,-1,737,141538,31,38,0.479022169,-1,3,0,0,1,790,151539,31,39,0.492973721,-1,1,1,1,1,760,161540,31,40,0.377143519,1,3,1,0,-1,802,151541,31,41,0.294928519,-1,2,0,1,-1,753,141542,31,42,0.380281095,-1,3,0,0,1,754,151543,31,43,0.367249458,-1,1,0,1,-1,403,141544,31,44,0.346535667,-1,3,1,1,1,1424,151545,31,45,0.230947846,-1,2,1,0,-1,1313,141546,31,46,0.210994157,1,1,0,1,-1,475,131547,31,47,0.304721033,-1,2,0,1,-1,872,121548,31,48,0.215912983,1,1,1,1,1,677,131549,31,49,0.12981183,-1,3,1,0,-1,770,121550,31,50,0.103524373,-1,1,1,1,1,657,131551,31,51,0.162928176,-1,2,1,0,-1,1471,121552,31,52,0.166470994,-1,3,0,0,1,842,131553,31,53,0.213526485,-1,2,0,1,-1,1424,121554,31,54,0.215378955,-1,3,0,0,1,770,131555,31,55,0.10463811,-1,1,1,1,1,639,141556,31,56,0.120338284,-1,3,0,0,1,762,151557,31,57,0.109781295,-1,2,1,0,-1,709,141558,31,58,0.11134388,-1,1,1,1,1,733,151559,31,59,0.108966455,-1,2,0,1,-1,1045,141560,31,60,0.339718534,-1,1,1,0,-1,338,131561,32,1,0.506330094,-1,3,0,1,-1,4622,-151562,32,2,0.512256346,-1,1,0,1,-1,1380,-161563,32,3,0.464638121,1,2,1,1,1,2475,-151564,32,4,0.636700678,1,1,1,1,1,3117,-141565,32,5,0.647504578,-1,3,1,0,-1,835,-151566,32,6,0.70317527,1,2,1,0,-1,2649,-161567,32,7,0.679674798,1,3,1,0,-1,1993,-171568,32,8,0.671574068,-1,2,0,1,-1,1723,-181569,32,9,0.643036659,1,1,0,1,-1,1296,-191570,32,10,0.655381262,-1,2,1,0,-1,1141,-201571,32,11,0.510226367,1,3,0,1,-1,2719,-211572,32,12,0.457625973,1,1,1,1,1,1836,-201573,32,13,0.352061822,1,3,0,0,1,956,-191574,32,14,0.44546477,-1,1,0,1,-1,1843,-201575,32,15,0.43323051,-1,2,1,1,1,1765,-191576,32,16,0.375995827,-1,1,1,0,-1,1264,-201577,32,17,0.365578042,1,3,1,0,-1,1298,-211578,32,18,0.324418178,-1,2,1,0,-1,2657,-221579,32,19,0.318736836,1,3,0,1,-1,1071,-231580,32,20,0.389304931,1,2,1,1,1,475,-221581,32,21,0.322074418,1,1,1,1,1,1376,-211582,32,22,0.234914515,-1,2,1,0,-1,1127,-221583,32,23,0.210376619,1,3,0,0,1,1450,-211584,32,24,0.143918756,-1,2,0,1,-1,2926,-221585,32,25,0.295361057,-1,1,1,1,1,2289,-211586,32,26,0.398067184,-1,3,0,0,1,1597,-201587,32,27,0.46911149,-1,1,1,1,1,1833,-191588,32,28,0.498203748,-1,3,0,0,1,1931,-181589,32,29,0.469703314,1,2,0,1,-1,1737,-191590,32,30,0.41768038,1,3,0,1,-1,1261,-201591,32,31,0.565987597,-1,1,1,0,-1,2146,-211592,32,32,0.379970799,1,2,1,1,1,1161,-201593,32,33,0.453914845,1,1,0,1,-1,1506,-211594,32,34,0.475150273,1,2,0,0,1,3109,-201595,32,35,0.394015803,1,3,0,1,-1,1584,-211596,32,36,0.382844021,1,2,0,0,1,3465,-201597,32,37,0.402173173,-1,1,1,1,1,1314,-191598,32,38,0.359723316,-1,3,0,1,-1,2637,-201599,32,39,0.214714343,-1,1,1,1,1,1569,-191600,32,40,0.280856358,1,3,1,0,-1,1923,-201601,32,41,0.387190772,1,2,0,0,1,1411,-191602,32,42,0.524676181,1,3,0,1,-1,1468,-201603,32,43,0.442401292,-1,1,1,1,1,2436,-191604,32,44,0.462111,-1,3,0,0,1,1048,-181605,32,45,0.430381617,-1,2,0,0,1,1281,-171606,32,46,0.458821139,-1,1,1,1,1,1084,-161607,32,47,0.495084649,1,2,0,1,-1,1168,-171608,32,48,0.635117022,1,1,1,1,1,1387,-161609,32,49,0.722442567,-1,3,0,0,1,1793,-151610,32,50,0.767179581,1,1,0,0,1,1329,-141611,32,51,0.794760325,-1,2,0,0,1,1543,-131612,32,52,0.778678496,1,3,1,1,1,1794,-121613,32,53,0.882440978,1,2,1,1,1,2522,-111614,32,54,0.839673977,1,3,0,0,1,2264,-101615,32,55,0.829087758,1,1,1,1,1,1767,-91616,32,56,0.839964163,1,3,0,1,-1,1332,-101617,32,57,0.884111386,1,2,0,0,1,2497,-91618,32,58,0.897570847,1,1,1,1,1,1398,-81619,32,59,0.802683665,1,2,1,0,-1,1528,-91620,32,60,0.807557513,1,1,1,0,-1,1695,-101621,33,1,0.445695333,-1,2,0,0,1,1169,71622,33,2,0.557226263,1,3,0,0,1,464,81623,33,3,0.534113562,1,1,1,0,-1,399,71624,33,4,0.508165047,1,3,0,0,1,898,81625,33,5,0.570938096,1,2,1,0,-1,404,71626,33,6,0.529049454,1,1,1,1,1,860,81627,33,7,0.516084628,1,2,1,1,1,865,91628,33,8,0.503733815,-1,1,0,1,-1,737,81629,33,9,0.431702453,-1,3,1,0,-1,861,71630,33,10,0.326251485,1,1,0,1,-1,859,61631,33,11,0.355228347,1,2,1,1,1,937,71632,33,12,0.451153926,1,3,0,0,1,1036,81633,33,13,0.343710957,1,2,1,1,1,957,91634,33,14,0.367967748,-1,3,1,0,-1,1125,81635,33,15,0.439174106,-1,1,1,1,1,583,91636,33,16,0.342068942,-1,3,0,0,1,879,101637,33,17,0.263109391,-1,2,0,1,-1,659,91638,33,18,0.301278393,-1,1,1,1,1,814,101639,33,19,0.331728465,1,2,1,1,1,920,111640,33,20,0.325411475,-1,1,1,1,1,663,121641,33,21,0.391917842,-1,1,1,1,1,936,131642,33,22,0.458408568,-1,2,1,1,1,778,141643,33,23,0.423579713,1,3,0,0,1,820,151644,33,24,0.496387816,-1,2,1,1,1,691,161645,33,25,0.675285922,1,1,1,1,1,820,171646,33,26,0.788960252,-1,3,1,0,-1,793,161647,33,27,0.711520424,1,1,0,1,-1,658,151648,33,28,0.648415904,-1,3,0,0,1,796,161649,33,29,0.562818518,1,2,1,1,1,666,171650,33,30,0.662254213,-1,3,1,0,-1,706,161651,33,31,0.614993517,1,1,0,1,-1,881,151652,33,32,0.418241924,1,2,0,1,-1,754,141653,33,33,0.430807734,-1,1,1,1,1,801,151654,33,34,0.278687702,1,2,0,1,-1,590,141655,33,35,0.286685647,-1,3,0,0,1,624,151656,33,36,0.337996192,1,2,0,1,-1,310,141657,33,37,0.359833852,-1,1,0,1,-1,771,131658,33,38,0.35673892,-1,3,0,0,1,620,141659,33,39,0.505324202,-1,1,1,1,1,843,151660,33,40,0.561446406,1,3,0,0,1,945,161661,33,41,0.566215005,-1,3,0,0,1,805,171662,33,42,0.64502991,1,1,1,1,1,864,181663,33,43,0.686937339,1,2,0,1,-1,532,171664,33,44,0.840639751,1,1,1,1,1,664,181665,33,45,0.779946362,1,3,0,0,1,560,191666,33,46,0.833921653,-1,2,1,1,1,574,201667,33,47,0.815911238,1,3,0,0,1,1284,211668,33,48,0.834925201,1,2,0,1,-1,676,201669,33,49,0.791079979,1,1,1,1,1,722,211670,33,50,0.814454848,1,2,0,1,-1,729,201671,33,51,0.859012305,1,3,0,0,1,1031,211672,33,52,0.840115539,1,1,1,1,1,624,221673,33,53,0.889937466,1,3,0,0,1,724,231674,33,54,0.790494576,1,1,1,1,1,744,241675,33,55,0.662428726,1,2,0,0,1,1288,251676,33,56,0.610965306,1,1,1,1,1,762,261677,33,57,0.672593317,1,3,0,0,1,710,271678,33,58,0.514048951,1,2,0,0,1,1045,281679,33,59,0.495587781,1,3,1,0,-1,734,271680,33,60,0.413773751,-1,2,1,0,-1,1080,261681,34,1,0.485813845,-1,1,1,1,1,1142,-41682,34,2,0.538437254,1,2,0,1,-1,2032,-51683,34,3,0.471985444,1,3,0,1,-1,1097,-61684,34,4,0.473426852,-1,2,0,1,-1,1467,-71685,34,5,0.47929487,1,1,0,1,-1,823,-81686,34,6,0.563943953,-1,3,0,0,1,673,-71687,34,7,0.481327473,-1,1,1,1,1,1833,-61688,34,8,0.481768749,1,3,0,1,-1,3912,-71689,34,9,0.450010045,1,2,0,1,-1,1706,-81690,34,10,0.48696744,-1,3,0,1,-1,392,-91691,34,11,0.510690688,-1,1,1,0,-1,3630,-101692,34,12,0.649815542,-1,2,1,1,1,3705,-91693,34,13,0.687370996,-1,1,1,0,-1,1638,-101694,34,14,0.689169474,1,2,0,1,-1,456,-111695,34,15,0.696986226,-1,3,0,1,-1,504,-121696,34,16,0.715539846,-1,2,0,1,-1,1856,-131697,34,17,0.667862662,1,1,1,1,1,106,-121698,34,18,0.766605333,1,3,0,1,-1,286,-131699,34,19,0.646923683,-1,1,1,1,1,551,-121700,34,20,0.542167749,1,3,0,1,-1,135,-131701,34,21,0.75142971,1,2,0,1,-1,225,-141702,34,22,0.760952949,NaN,3,NaN,NaN,NaN,NaN,-141703,34,23,0.78289909,1,1,1,0,-1,847,-151704,34,24,0.791383799,NaN,3,NaN,NaN,NaN,NaN,-151705,34,25,0.813227439,1,2,1,0,-1,2748,-161706,34,26,0.747315324,1,1,1,0,-1,3728,-171707,34,27,0.527838569,1,2,1,0,-1,567,-181708,34,28,0.683494749,-1,1,1,0,-1,4448,-191709,34,29,0.602759152,1,3,0,0,1,1361,-181710,34,30,0.540385051,-1,1,1,0,-1,2887,-191711,34,31,0.560266799,-1,2,1,0,-1,231,-201712,34,32,0.586184069,1,3,1,1,1,784,-191713,34,33,0.485447768,-1,2,1,1,1,615,-181714,34,34,0.513065807,1,3,0,0,1,41,-171715,34,35,0.503612597,1,1,1,0,-1,3183,-181716,34,36,0.424132147,-1,3,1,0,-1,839,-191717,34,37,0.384760471,-1,2,1,0,-1,1286,-201718,34,38,0.31250544,1,1,1,0,-1,298,-211719,34,39,0.374860696,1,2,0,0,1,1716,-201720,34,40,0.325516407,-1,1,0,0,1,401,-191721,34,41,0.295619281,1,3,1,0,-1,1408,-201722,34,42,0.32321954,-1,1,1,0,-1,943,-211723,34,43,0.243128289,-1,2,1,0,-1,3816,-221724,34,44,0.255554318,1,1,0,0,1,343,-211725,34,45,0.236579022,-1,3,0,0,1,3002,-201726,34,46,0.131159542,-1,2,0,0,1,1055,-191727,34,47,0.113745396,-1,3,0,0,1,103,-181728,34,48,0.108037447,-1,2,1,0,-1,3688,-191729,34,49,0.12636227,-1,1,1,1,1,1809,-181730,34,50,0.21492105,-1,2,0,1,-1,262,-191731,34,51,0.284808535,-1,3,1,0,-1,167,-201732,34,52,0.345875523,-1,1,0,0,1,775,-191733,34,53,0.405821788,-1,3,0,0,1,2839,-181734,34,54,0.426721732,-1,1,1,1,1,471,-171735,34,55,0.434974217,-1,2,0,1,-1,560,-181736,34,56,0.469101451,1,1,0,0,1,696,-171737,34,57,0.451338101,-1,3,1,0,-1,2528,-181738,34,58,0.389954295,1,2,1,1,1,1080,-171739,34,59,0.332980753,1,3,0,1,-1,1744,-181740,34,60,0.310713409,-1,2,1,1,1,518,-171741,35,1,0.48186041,-1,1,0,1,-1,2054,-11742,35,2,0.480533853,-1,2,1,1,1,1052,01743,35,3,0.45567932,-1,3,0,1,-1,1202,-11744,35,4,0.454424134,1,2,0,1,-1,1054,-21745,35,5,0.367081831,1,1,1,0,-1,783,-31746,35,6,0.327290325,-1,3,1,0,-1,1167,-41747,35,7,0.199740633,-1,1,1,1,1,1152,-31748,35,8,0.177327986,-1,3,1,1,1,751,-21749,35,9,0.293445093,-1,2,1,1,1,911,-11750,35,10,0.271717348,-1,3,0,1,-1,448,-21751,35,11,0.459411379,1,1,1,0,-1,464,-31752,35,12,0.444715487,-1,2,1,1,1,639,-21753,35,13,0.40529175,-1,1,1,0,-1,850,-31754,35,14,0.357249825,-1,2,0,1,-1,574,-41755,35,15,0.337964836,1,3,0,1,-1,895,-51756,35,16,0.350692779,-1,2,0,1,-1,784,-61757,35,17,0.458140079,-1,1,1,1,1,815,-51758,35,18,0.496326328,-1,3,0,0,1,800,-41759,35,19,0.534915149,-1,1,0,1,-1,831,-51760,35,20,0.488805049,-1,3,1,0,-1,815,-61761,35,21,0.454195486,-1,3,0,0,1,1088,-51762,35,22,0.484007971,-1,1,0,1,-1,1358,-61763,35,23,0.391219837,1,2,1,1,1,1328,-51764,35,24,0.361482857,1,1,1,1,1,1278,-41765,35,25,0.305860438,1,3,0,0,1,1376,-31766,35,26,0.331511098,-1,2,0,1,-1,1216,-41767,35,27,0.284775561,-1,3,0,0,1,1648,-31768,35,28,0.251204506,1,2,0,1,-1,2063,-41769,35,29,0.293576515,1,1,0,1,-1,1439,-51770,35,30,0.293151378,1,2,1,1,1,2176,-41771,35,31,0.448731006,1,3,0,0,1,1728,-31772,35,32,0.407509961,-1,1,1,1,1,2479,-21773,35,33,0.490496688,-1,3,0,0,1,1647,-11774,35,34,0.527472311,-1,1,1,1,1,1665,01775,35,35,0.640213285,-1,2,1,1,1,1264,11776,35,36,0.646505524,-1,1,1,1,1,1343,21777,35,37,0.588716112,1,3,1,0,-1,1023,11778,35,38,0.559166721,1,2,1,1,1,1455,21779,35,39,0.605873371,1,3,0,0,1,2384,31780,35,40,0.708384903,-1,2,0,1,-1,1567,21781,35,41,0.821673003,1,2,0,1,-1,1631,11782,35,42,0.843956102,-1,3,0,0,1,1073,21783,35,43,0.852930985,1,1,1,1,1,1921,31784,35,44,0.849575681,-1,3,0,0,1,1568,41785,35,45,0.842623807,1,2,0,0,1,3519,51786,35,46,0.878332591,1,1,1,1,1,1503,61787,35,47,0.742408491,1,2,0,1,-1,1791,51788,35,48,0.774907359,1,1,0,1,-1,1070,41789,35,49,0.812094442,1,3,0,0,1,1312,51790,35,50,0.779692394,1,1,1,1,1,1147,61791,35,51,0.820187718,1,2,0,1,-1,1391,51792,35,52,0.603812131,1,3,1,0,-1,1824,41793,35,53,0.601959608,1,2,1,1,1,1298,51794,35,54,0.611854877,-1,3,0,0,1,2172,61795,35,55,0.589073986,1,1,1,1,1,1265,71796,35,56,0.565546863,1,3,0,0,1,1230,81797,35,57,0.578463584,1,2,1,1,1,1392,91798,35,58,0.599267658,1,1,1,1,1,1199,101799,35,59,0.653031151,1,2,1,1,1,2063,111800,35,60,0.634274983,1,1,1,1,1,1151,121801,36,1,0.454649079,-1,2,0,1,-1,2919,-31802,36,2,0.440412754,-1,3,1,1,1,980,-21803,36,3,0.369871769,1,1,1,1,1,741,-11804,36,4,0.376974076,1,3,0,1,-1,1127,-21805,36,5,0.389498111,-1,2,0,0,1,1775,-11806,36,6,0.437873251,-1,1,1,1,1,1004,01807,36,7,0.290627468,-1,2,0,0,1,1110,11808,36,8,0.278676781,1,1,0,1,-1,896,01809,36,9,0.295725321,-1,3,0,1,-1,1300,-11810,36,10,0.26084802,-1,1,1,1,1,875,01811,36,11,0.174580681,-1,2,1,0,-1,1324,-11812,36,12,0.251373421,-1,3,0,1,-1,857,-21813,36,13,0.229295458,-1,2,1,1,1,881,-11814,36,14,0.196042417,1,3,0,0,1,1244,01815,36,15,0.164606601,-1,1,0,1,-1,907,-11816,36,16,0.170546609,-1,3,0,1,-1,913,-21817,36,17,0.290968867,-1,2,1,1,1,1089,-11818,36,18,0.356889831,1,1,1,0,-1,1492,-21819,36,19,0.432400429,-1,2,1,0,-1,1051,-31820,36,20,0.47214266,-1,1,1,1,1,1308,-21821,36,21,0.513021899,1,3,1,1,1,745,-11822,36,22,0.626042929,-1,1,1,1,1,661,01823,36,23,0.771730439,1,2,1,1,1,680,11824,36,24,0.670030261,1,1,1,0,-1,839,01825,36,25,0.787700629,1,3,0,1,-1,529,-11826,36,26,0.737576132,1,2,1,0,-1,860,-21827,36,27,0.7210388,-1,3,0,1,-1,697,-31828,36,28,0.737724318,-1,2,0,1,-1,577,-41829,36,29,0.869659812,1,1,1,1,1,520,-31830,36,30,0.853625971,1,2,1,1,1,792,-21831,36,31,0.714619323,1,3,1,1,1,693,-11832,36,32,0.800082381,1,1,1,1,1,533,01833,36,33,0.714387672,1,3,0,1,-1,588,-11834,36,34,0.749598311,1,1,1,1,1,1126,01835,36,35,0.61905296,-1,2,1,1,1,439,11836,36,36,0.583020672,1,1,0,1,-1,486,01837,36,37,0.602763506,-1,3,1,1,1,549,11838,36,38,0.508001669,-1,2,1,1,1,705,21839,36,39,0.44876955,-1,3,0,1,-1,895,11840,36,40,0.458387601,1,2,0,1,-1,965,01841,36,41,0.508625414,-1,1,1,1,1,714,11842,36,42,0.428915321,1,2,0,1,-1,599,01843,36,43,0.378838907,-1,3,0,1,-1,655,-11844,36,44,0.368729925,-1,2,0,1,-1,690,-21845,36,45,0.409932029,-1,1,1,1,1,554,-11846,36,46,0.445189152,1,3,0,1,-1,675,-21847,36,47,0.513457417,1,1,1,1,1,833,-11848,36,48,0.327336347,1,3,0,0,1,911,01849,36,49,0.351183538,-1,2,0,1,-1,610,-11850,36,50,0.38040292,-1,3,0,0,1,634,01851,36,51,0.462261136,1,1,0,1,-1,1521,-11852,36,52,0.520651661,1,2,0,1,-1,653,-21853,36,53,0.585163401,-1,1,0,1,-1,867,-31854,36,54,0.611875557,1,2,0,1,-1,873,-41855,36,55,0.662381152,1,3,1,0,-1,792,-51856,36,56,0.752393655,1,2,1,1,1,599,-41857,36,57,0.885346731,1,1,1,1,1,571,-31858,36,58,0.797304601,1,3,0,1,-1,1173,-41859,36,59,0.755704188,1,1,1,1,1,561,-31860,36,60,0.72145744,1,3,0,1,-1,925,-41861,37,1,0.557765959,1,2,0,1,-1,1655,-31862,37,2,0.580687252,1,3,0,1,-1,1188,-41863,37,3,0.576967729,-1,1,1,1,1,2159,-31864,37,4,0.565788654,1,3,0,1,-1,1269,-41865,37,5,0.53594826,1,2,0,0,1,1080,-31866,37,6,0.40821953,-1,1,0,1,-1,647,-41867,37,7,0.402399355,1,2,1,0,-1,574,-51868,37,8,0.357189145,-1,1,1,1,1,823,-41869,37,9,0.271415808,-1,3,1,0,-1,1231,-51870,37,10,0.20758105,-1,1,1,1,1,852,-41871,37,11,0.147604813,-1,2,0,0,1,758,-31872,37,12,0.124619783,-1,3,1,1,1,653,-21873,37,13,0.129501102,-1,2,1,0,-1,728,-31874,37,14,0.107261983,-1,3,0,1,-1,559,-41875,37,15,0.191975475,-1,1,1,1,1,656,-31876,37,16,0.254982315,-1,3,1,1,1,711,-21877,37,17,0.336560517,-1,2,0,0,1,469,-11878,37,18,0.334391337,1,1,1,1,1,581,01879,37,19,0.313184107,-1,2,1,0,-1,530,-11880,37,20,0.324229557,-1,1,1,1,1,549,01881,37,21,0.290693212,-1,1,1,1,1,1518,11882,37,22,0.433116618,1,2,0,0,1,470,21883,37,23,0.368800952,-1,3,0,1,-1,466,11884,37,24,0.255612185,-1,2,1,0,-1,1004,01885,37,25,0.504533947,1,1,0,1,-1,678,-11886,37,26,0.486051796,-1,3,0,1,-1,782,-21887,37,27,0.586562497,-1,1,0,1,-1,535,-31888,37,28,0.597039261,1,3,0,1,-1,718,-41889,37,29,0.589954332,-1,2,1,0,-1,927,-51890,37,30,0.612335153,1,3,0,0,1,927,-41891,37,31,0.544653306,1,1,1,0,-1,311,-51892,37,32,0.563872441,1,2,0,0,1,616,-41893,37,33,0.59047642,-1,1,0,1,-1,572,-51894,37,34,0.586666649,-1,2,1,0,-1,623,-61895,37,35,0.636458346,1,3,0,1,-1,580,-71896,37,36,0.520189567,-1,2,0,0,1,479,-61897,37,37,0.57478451,1,1,1,0,-1,371,-71898,37,38,0.669048755,1,3,0,0,1,1031,-61899,37,39,0.695996155,1,1,1,1,1,541,-51900,37,40,0.70833544,1,3,0,0,1,783,-41901,37,41,0.634536638,1,3,0,0,1,686,-31902,37,42,0.750502228,1,1,0,1,-1,599,-41903,37,43,0.761256977,1,2,1,0,-1,583,-51904,37,44,0.749558763,1,1,1,1,1,543,-41905,37,45,0.804880829,1,3,0,0,1,2673,-31906,37,46,0.812286465,1,2,1,0,-1,924,-41907,37,47,0.699160523,1,3,0,0,1,489,-31908,37,48,0.688114731,1,2,0,0,1,829,-21909,37,49,0.608479583,1,1,1,1,1,520,-11910,37,50,0.621700699,-1,2,1,0,-1,501,-21911,37,51,0.578838101,1,3,1,0,-1,503,-31912,37,52,0.611301793,1,1,1,1,1,472,-21913,37,53,0.53049447,-1,3,1,0,-1,647,-31914,37,54,0.473998525,-1,1,1,1,1,630,-21915,37,55,0.4565828,-1,2,0,0,1,3383,-11916,37,56,0.456281718,-1,1,1,1,1,973,01917,37,57,0.451070206,-1,3,0,0,1,527,11918,37,58,0.539102881,1,2,0,0,1,494,21919,37,59,0.479525632,1,3,0,0,1,1134,31920,37,60,0.530873094,1,2,1,0,-1,521,21921,38,1,0.543862039,1,3,1,0,-1,1416,11922,38,2,0.523685773,-1,1,0,1,-1,1056,01923,38,3,0.52624438,-1,2,1,0,-1,1720,-11924,38,4,0.552959701,-1,1,1,0,-1,407,-21925,38,5,0.539172183,-1,3,1,0,-1,385,-31926,38,6,0.551573002,-1,2,1,1,1,696,-21927,38,7,0.578409421,-1,3,0,1,-1,1080,-31928,38,8,0.439102937,1,2,0,0,1,392,-21929,38,9,0.410881894,1,1,1,0,-1,992,-31930,38,10,0.425237446,1,2,0,1,-1,336,-41931,38,11,0.404481604,-1,3,1,1,1,191,-31932,38,12,0.345850245,1,1,1,1,1,329,-21933,38,13,0.479885546,-1,3,0,1,-1,392,-31934,38,14,0.561924349,1,1,1,1,1,735,-21935,38,15,0.656614426,-1,2,1,0,-1,745,-31936,38,16,0.549259155,-1,1,0,0,1,688,-21937,38,17,0.550424487,-1,3,0,0,1,600,-11938,38,18,0.594039755,1,2,1,0,-1,888,-21939,38,19,0.658824639,-1,3,0,1,-1,504,-31940,38,20,0.73379578,1,2,1,0,-1,495,-41941,38,21,0.852721261,-1,2,1,1,1,511,-31942,38,22,0.835624179,-1,3,0,1,-1,368,-41943,38,23,0.699323608,-1,1,0,0,1,1232,-31944,38,24,0.697513075,1,3,0,0,1,1440,-21945,38,25,0.80630449,-1,2,0,0,1,608,-11946,38,26,0.88751134,1,1,1,1,1,664,01947,38,27,0.808629096,-1,2,0,1,-1,519,-11948,38,28,0.876864557,1,1,1,1,1,1160,01949,38,29,0.88704909,1,3,1,0,-1,400,-11950,38,30,0.85070622,1,1,0,1,-1,263,-21951,38,31,0.707722297,1,2,1,1,1,257,-11952,38,32,0.706342607,-1,3,0,1,-1,368,-21953,38,33,0.759691033,-1,2,1,1,1,328,-11954,38,34,0.720092817,1,3,0,1,-1,320,-21955,38,35,0.590514664,-1,1,1,0,-1,304,-31956,38,36,0.527356038,-1,3,0,0,1,312,-21957,38,37,0.412584181,1,2,1,0,-1,831,-31958,38,38,0.36096128,1,1,1,1,1,249,-21959,38,39,0.260384804,-1,2,0,1,-1,888,-31960,38,40,0.24013262,-1,1,1,1,1,719,-21961,38,41,0.286647658,-1,1,1,1,1,721,-11962,38,42,0.305477721,-1,2,0,0,1,1104,01963,38,43,0.344557807,-1,3,0,0,1,375,11964,38,44,0.343690284,1,2,0,0,1,425,21965,38,45,0.313330544,-1,1,1,1,1,272,31966,38,46,0.206237521,-1,3,0,1,-1,303,21967,38,47,0.186412749,-1,1,1,0,-1,585,11968,38,48,0.317356643,-1,3,0,1,-1,208,01969,38,49,0.371988128,1,2,1,1,1,424,11970,38,50,0.40324673,1,3,1,1,1,335,21971,38,51,0.353129267,-1,1,1,0,-1,441,11972,38,52,0.317877933,-1,2,0,0,1,216,21973,38,53,0.226699194,-1,1,1,0,-1,520,11974,38,54,0.224415913,-1,2,0,1,-1,280,01975,38,55,0.285543877,-1,3,0,1,-1,232,-11976,38,56,0.342809139,-1,2,0,1,-1,319,-21977,38,57,0.46630077,-1,1,0,0,1,399,-11978,38,58,0.495854586,-1,3,0,0,1,593,01979,38,59,0.430671855,-1,1,1,0,-1,648,-11980,38,60,0.461094886,-1,3,0,1,-1,479,-21981,39,1,0.469624613,-1,3,1,1,1,1891,-51982,39,2,0.536317054,-1,1,1,1,1,1423,-41983,39,3,0.557283291,-1,2,1,0,-1,992,-51984,39,4,0.60051847,1,1,1,1,1,40,-41985,39,5,0.629458312,1,3,0,1,-1,176,-51986,39,6,0.62612372,1,2,0,1,-1,136,-61987,39,7,0.600056747,1,3,0,1,-1,137,-71988,39,8,0.617825853,-1,2,1,0,-1,56,-81989,39,9,0.641894504,-1,1,1,1,1,192,-71990,39,10,0.586222954,1,2,1,1,1,144,-61991,39,11,0.566012265,-1,3,0,1,-1,264,-71992,39,12,0.478445005,1,1,0,1,-1,72,-81993,39,13,0.385546167,-1,3,0,0,1,800,-71994,39,14,0.301162017,-1,1,1,1,1,104,-61995,39,15,0.304143856,-1,2,0,1,-1,96,-71996,39,16,0.218154132,-1,1,0,0,1,1391,-61997,39,17,0.239884486,1,3,0,1,-1,912,-71998,39,18,0.187225782,1,2,0,0,1,1097,-61999,39,19,0.133153464,-1,3,0,0,1,776,-52000,39,20,0.205548944,1,2,0,1,-1,400,-62001,39,21,0.112602308,-1,1,1,0,-1,264,-72002,39,22,0.168652668,-1,2,0,0,1,360,-62003,39,23,0.383469552,1,3,0,1,-1,479,-72004,39,24,0.32742699,-1,2,1,0,-1,272,-82005,39,25,0.405854911,1,1,1,0,-1,168,-92006,39,26,0.492472102,1,3,0,0,1,416,-82007,39,27,0.485059405,-1,1,0,0,1,312,-72008,39,28,0.484406641,-1,3,1,0,-1,384,-82009,39,29,0.410054635,1,2,1,1,1,271,-72010,39,30,0.380791534,1,3,1,1,1,535,-62011,39,31,0.347923497,-1,1,1,1,1,584,-52012,39,32,0.23355213,-1,2,1,0,-1,1127,-62013,39,33,0.233990758,-1,1,1,1,1,871,-52014,39,34,0.206576699,-1,2,1,1,1,448,-42015,39,35,0.196131431,1,3,1,1,1,128,-32016,39,36,0.125551031,-1,2,1,0,-1,232,-42017,39,37,0.170054375,1,1,0,1,-1,103,-52018,39,38,0.363360887,1,3,0,1,-1,1200,-62019,39,39,0.409680451,1,1,1,0,-1,72,-72020,39,40,0.47406863,1,3,0,0,1,312,-62021,39,41,0.670651068,1,2,1,1,1,680,-52022,39,42,0.634453905,-1,3,0,0,1,1087,-42023,39,43,0.603554183,1,1,1,1,1,1512,-32024,39,44,0.49677123,1,3,0,0,1,1279,-22025,39,45,0.493505631,-1,2,0,1,-1,1511,-32026,39,46,0.53713938,1,1,1,1,1,1136,-22027,39,47,0.569587938,1,2,0,1,-1,1232,-32028,39,48,0.589829702,-1,1,1,1,1,1704,-22029,39,49,0.695645642,1,3,1,0,-1,1561,-32030,39,50,0.67547079,1,1,1,1,1,1176,-22031,39,51,0.757795438,1,2,0,1,-1,768,-32032,39,52,0.742916185,1,3,0,1,-1,183,-42033,39,53,0.729912325,1,2,1,1,1,1455,-32034,39,54,0.796867317,-1,3,0,0,1,968,-22035,39,55,0.781105726,-1,1,1,1,1,247,-12036,39,56,0.78383061,NaN,3,NaN,NaN,NaN,NaN,-12037,39,57,0.788039555,-1,2,0,1,-1,1761,-22038,39,58,0.883938066,1,1,1,1,1,862,-12039,39,59,0.852604995,1,2,0,1,-1,1048,-22040,39,60,0.87045259,1,1,0,1,-1,2128,-32041,40,1,0.596618826,1,2,1,1,1,4980,-72042,40,2,0.584949826,1,3,0,1,-1,958,-82043,40,3,0.692567938,-1,1,1,1,1,1462,-72044,40,4,0.755653616,-1,3,0,0,1,1894,-62045,40,5,0.818582825,1,2,0,1,-1,1040,-72046,40,6,0.769520861,1,1,0,0,1,1659,-62047,40,7,0.88390627,-1,2,1,0,-1,1269,-72048,40,8,0.890881244,1,1,1,0,-1,743,-82049,40,9,0.888743934,1,3,1,1,1,1553,-72050,40,10,0.878037503,1,1,1,1,1,864,-62051,40,11,0.801144574,-1,2,1,1,1,639,-52052,40,12,0.841260318,1,3,0,1,-1,785,-62053,40,13,0.728311526,1,2,0,1,-1,856,-72054,40,14,0.73149466,1,3,0,0,1,1022,-62055,40,15,0.691265269,1,1,1,0,-1,524,-72056,40,16,0.690909247,-1,3,0,0,1,610,-62057,40,17,0.706776959,-1,2,0,0,1,908,-52058,40,18,0.715468054,-1,1,0,0,1,839,-42059,40,19,0.665165516,1,2,1,0,-1,514,-52060,40,20,0.58382159,-1,1,1,1,1,1155,-42061,40,21,0.558169455,1,1,1,1,1,1354,-32062,40,22,0.536599546,1,2,1,0,-1,1324,-42063,40,23,0.546664755,1,3,0,1,-1,1338,-52064,40,24,0.439713869,-1,2,0,1,-1,1527,-62065,40,25,0.4909661,1,1,1,1,1,1354,-52066,40,26,0.466368604,-1,3,0,0,1,947,-42067,40,27,0.447691035,NaN,1,NaN,NaN,NaN,NaN,-42068,40,28,0.280339156,1,3,1,0,-1,1443,-52069,40,29,0.336067951,-1,2,1,0,-1,1172,-62070,40,30,0.331394762,-1,3,0,1,-1,491,-72071,40,31,0.349685651,1,1,1,0,-1,1070,-82072,40,32,0.223309547,-1,2,0,1,-1,482,-92073,40,33,0.167774282,-1,1,0,1,-1,767,-102074,40,34,0.183076254,-1,2,1,1,1,624,-92075,40,35,0.157990942,-1,3,0,1,-1,565,-102076,40,36,0.168506279,-1,2,0,0,1,1016,-92077,40,37,0.295302639,-1,1,1,0,-1,1187,-102078,40,38,0.33694651,-1,3,1,1,1,966,-92079,40,39,0.377059815,-1,1,1,1,1,1140,-82080,40,40,0.459672019,-1,3,0,1,-1,862,-92081,40,41,0.512534195,-1,3,1,0,-1,1008,-102082,40,42,0.350706314,-1,1,0,1,-1,540,-112083,40,43,0.527143426,1,2,0,1,-1,1261,-122084,40,44,0.542392254,-1,1,1,0,-1,783,-132085,40,45,0.595410084,-1,3,0,0,1,1031,-122086,40,46,0.530612548,1,2,1,0,-1,664,-132087,40,47,0.484471117,-1,3,0,0,1,1049,-122088,40,48,0.39936905,-1,2,0,1,-1,1353,-132089,40,49,0.40663388,-1,1,0,0,1,672,-122090,40,50,0.427881894,1,2,0,0,1,591,-112091,40,51,0.388106241,1,3,1,0,-1,409,-122092,40,52,0.353220177,1,1,1,0,-1,543,-132093,40,53,0.328591443,1,3,0,0,1,973,-122094,40,54,0.340935255,-1,1,1,0,-1,820,-132095,40,55,0.327540012,-1,2,1,0,-1,679,-142096,40,56,0.24956884,-1,1,1,1,1,513,-132097,40,57,0.170350308,-1,3,0,1,-1,707,-142098,40,58,0.217350848,-1,2,0,1,-1,622,-152099,40,59,0.163244017,-1,3,0,0,1,2117,-142100,40,60,0.119252482,-1,2,1,0,-1,1835,-152101,41,1,0.542318617,1,2,1,1,1,1963,92102,41,2,0.644321327,-1,3,0,1,-1,1002,82103,41,3,0.733751155,1,1,1,1,1,735,92104,41,4,0.80368242,-1,3,0,0,1,996,102105,41,5,0.85770319,-1,2,1,1,1,1008,112106,41,6,0.859466637,1,1,0,1,-1,1395,102107,41,7,0.897100777,-1,2,0,1,-1,835,92108,41,8,0.772647429,-1,1,1,1,1,1293,102109,41,9,0.868975017,1,3,0,0,1,1420,112110,41,10,0.879433436,1,1,1,1,1,1999,122111,41,11,0.821306445,1,2,1,0,-1,2262,112112,41,12,0.8334319,1,3,0,0,1,1234,122113,41,13,0.837389921,-1,2,0,1,-1,889,112114,41,14,0.801947356,1,3,1,1,1,1375,122115,41,15,0.822759082,1,1,1,1,1,1443,132116,41,16,0.799315318,1,3,0,1,-1,1196,122117,41,17,0.680595017,1,2,1,1,1,701,132118,41,18,0.742129279,-1,1,1,0,-1,830,122119,41,19,0.809229491,-1,2,1,1,1,807,132120,41,20,0.831318661,1,1,1,1,1,1176,142121,41,21,0.851378364,1,1,0,1,-1,883,132122,41,22,0.891392918,1,2,0,1,-1,859,122123,41,23,0.850452918,1,3,0,0,1,756,132124,41,24,0.670247116,-1,2,0,1,-1,831,122125,41,25,0.612143681,-1,1,0,1,-1,1325,112126,41,26,0.61115441,1,3,1,0,-1,2344,102127,41,27,0.57119554,NaN,1,NaN,NaN,NaN,NaN,102128,41,28,0.526242311,NaN,3,NaN,NaN,NaN,NaN,102129,41,29,0.432624493,-1,2,0,0,1,930,112130,41,30,0.500804539,1,3,0,1,-1,1935,102131,41,31,0.525331541,1,1,0,1,-1,1004,92132,41,32,0.518586122,1,2,0,1,-1,620,82133,41,33,0.461406111,1,1,1,0,-1,1188,72134,41,34,0.34438565,-1,2,1,1,1,1023,82135,41,35,0.273289608,-1,3,0,0,1,1046,92136,41,36,0.249437437,-1,2,1,1,1,819,102137,41,37,0.19549453,-1,1,1,0,-1,1327,92138,41,38,0.101093947,-1,3,1,0,-1,897,82139,41,39,0.180905102,-1,1,1,1,1,1038,92140,41,40,0.195243594,-1,3,1,0,-1,1191,82141,41,41,0.109204672,1,3,0,0,1,1001,92142,41,42,0.148911587,-1,1,1,1,1,924,102143,41,43,0.201968474,-1,2,1,1,1,795,112144,41,44,0.225384877,-1,1,1,0,-1,1410,102145,41,45,0.118715208,-1,3,1,0,-1,939,92146,41,46,0.114535236,-1,2,0,0,1,446,102147,41,47,0.202902271,-1,3,0,1,-1,1073,92148,41,48,0.108826135,-1,2,1,1,1,1001,102149,41,49,0.157010525,-1,1,1,1,1,1201,112150,41,50,0.191934838,1,2,0,1,-1,737,102151,41,51,0.190139277,-1,3,0,1,-1,400,92152,41,52,0.145039428,1,1,1,0,-1,1180,82153,41,53,0.10646237,-1,3,0,1,-1,513,72154,41,54,0.119079634,-1,1,0,1,-1,1166,62155,41,55,0.264824451,-1,2,0,1,-1,529,52156,41,56,0.332162049,1,1,1,1,1,1024,62157,41,57,0.172462686,-1,3,0,0,1,948,72158,41,58,0.169851222,-1,2,1,1,1,764,82159,41,59,0.182943316,-1,3,0,0,1,906,92160,41,60,0.181508763,1,2,0,1,-1,1219,82161,42,1,0.528990139,1,2,1,0,-1,2089,-82162,42,2,0.565919096,-1,3,0,1,-1,418,-92163,42,3,0.628387474,1,1,1,1,1,413,-82164,42,4,0.768921974,1,3,0,0,1,656,-72165,42,5,0.842491189,1,2,0,1,-1,1445,-82166,42,6,0.893715833,1,1,1,0,-1,748,-92167,42,7,0.885731857,1,2,0,0,1,335,-82168,42,8,0.896086249,1,1,1,1,1,1215,-72169,42,9,0.729384083,NaN,3,NaN,NaN,NaN,NaN,-72170,42,10,0.697808418,-1,1,1,0,-1,838,-82171,42,11,0.816737444,1,2,0,1,-1,1393,-92172,42,12,0.766442236,1,3,0,0,1,1633,-82173,42,13,0.728265199,1,2,1,0,-1,1120,-92174,42,14,0.588500331,1,3,0,1,-1,1103,-102175,42,15,0.614661492,1,1,1,1,1,815,-92176,42,16,0.711374453,1,3,1,0,-1,947,-102177,42,17,0.714192495,-1,2,0,1,-1,1357,-112178,42,18,0.729954808,1,1,1,1,1,1296,-102179,42,19,0.637189536,-1,2,1,0,-1,913,-112180,42,20,0.568582083,-1,1,0,1,-1,1150,-122181,42,21,0.63129119,1,3,0,1,-1,479,-132182,42,22,0.604159232,-1,1,1,1,1,1184,-122183,42,23,0.608341997,-1,2,0,1,-1,1776,-132184,42,24,0.630168503,-1,1,1,0,-1,1090,-142185,42,25,0.508618826,1,3,0,0,1,1071,-132186,42,26,0.512496164,1,2,0,1,-1,1055,-142187,42,27,0.448520682,-1,3,1,1,1,1041,-132188,42,28,0.367003062,1,2,1,0,-1,1039,-142189,42,29,0.323935113,1,1,1,1,1,2000,-132190,42,30,0.323753784,-1,2,1,1,1,897,-122191,42,31,0.360599739,1,3,1,0,-1,496,-132192,42,32,0.40355173,1,1,0,0,1,560,-122193,42,33,0.48489457,1,3,0,1,-1,400,-132194,42,34,0.505894389,1,1,1,1,1,451,-122195,42,35,0.473009007,1,2,1,1,1,3037,-112196,42,36,0.455854854,-1,1,1,1,1,2351,-102197,42,37,0.39850449,-1,3,0,0,1,705,-92198,42,38,0.42656356,1,2,1,1,1,321,-82199,42,39,0.294026106,1,3,0,0,1,942,-72200,42,40,0.295822295,-1,2,0,1,-1,463,-82201,42,41,0.225218141,1,1,0,0,1,1279,-72202,42,42,0.236548514,-1,2,1,0,-1,559,-82203,42,43,0.257653249,-1,3,0,1,-1,367,-92204,42,44,0.210761984,-1,2,0,1,-1,975,-102205,42,45,0.125478183,-1,1,0,0,1,960,-92206,42,46,0.124828995,-1,3,1,0,-1,865,-102207,42,47,0.165660812,-1,1,1,1,1,3903,-92208,42,48,0.140600085,-1,3,0,0,1,3153,-82209,42,49,0.231356709,-1,2,1,1,1,2352,-72210,42,50,0.153383256,-1,3,0,1,-1,1263,-82211,42,51,0.144898844,-1,1,1,0,-1,1087,-92212,42,52,0.145406439,-1,2,0,1,-1,849,-102213,42,53,0.122025704,-1,1,1,0,-1,1424,-112214,42,54,0.177740415,-1,2,0,1,-1,1503,-122215,42,55,0.142928331,-1,3,0,1,-1,848,-132216,42,56,0.199159357,-1,2,1,0,-1,575,-142217,42,57,0.197835587,1,1,0,0,1,400,-132218,42,58,0.36993338,-1,3,0,0,1,1184,-122219,42,59,0.246183432,-1,1,1,1,1,2032,-112220,42,60,0.259903592,-1,3,0,1,-1,2592,-122221,43,1,0.454907084,1,3,0,0,1,1366,112222,43,2,0.468188632,-1,1,1,0,-1,1735,102223,43,3,0.471089194,-1,2,0,1,-1,1730,92224,43,4,0.581221326,1,1,1,1,1,888,102225,43,5,0.569877003,-1,3,0,1,-1,1276,92226,43,6,0.621020915,1,2,0,1,-1,1493,82227,43,7,0.610653792,-1,3,0,0,1,870,92228,43,8,0.544001393,-1,2,0,0,1,1426,102229,43,9,0.491679288,-1,1,1,0,-1,1472,92230,43,10,0.475845861,1,2,1,1,1,1374,102231,43,11,0.419023053,-1,3,0,1,-1,1007,92232,43,12,0.382066128,-1,1,0,1,-1,1358,82233,43,13,0.386042766,-1,3,0,0,1,1088,92234,43,14,0.399128995,1,1,0,0,1,1286,102235,43,15,0.367662038,1,2,1,0,-1,871,92236,43,16,0.250991711,-1,1,1,1,1,1113,102237,43,17,0.271273326,-1,3,0,1,-1,1193,92238,43,18,0.128503509,-1,2,1,0,-1,1447,82239,43,19,0.186574987,-1,3,0,0,1,1308,92240,43,20,0.209495813,-1,2,0,0,1,946,102241,43,21,0.272559569,-1,1,1,0,-1,890,92242,43,22,0.301102367,-1,2,0,1,-1,989,82243,43,23,0.262003281,-1,3,0,0,1,1302,92244,43,24,0.149034348,-1,2,0,0,1,986,102245,43,25,0.133516891,-1,1,1,0,-1,861,92246,43,26,0.13918073,-1,3,1,0,-1,1768,82247,43,27,0.154532193,1,1,1,1,1,1142,92248,43,28,0.103161448,-1,3,1,1,1,1139,102249,43,29,0.132851511,-1,2,1,1,1,1226,112250,43,30,0.10494081,-1,3,0,1,-1,842,102251,43,31,0.162300845,-1,1,1,0,-1,989,92252,43,32,0.196244926,-1,2,1,1,1,902,102253,43,33,0.2007743,-1,1,0,1,-1,867,92254,43,34,0.358856353,1,2,1,1,1,894,102255,43,35,0.36925893,-1,3,0,1,-1,877,92256,43,36,0.399252975,1,2,1,0,-1,1183,82257,43,37,0.368466058,-1,1,0,1,-1,737,72258,43,38,0.435310703,-1,3,1,0,-1,1022,62259,43,39,0.585249511,-1,1,1,1,1,1039,72260,43,40,0.572836807,-1,3,0,1,-1,1149,62261,43,41,0.516769924,1,2,0,1,-1,1469,52262,43,42,0.563447981,1,3,0,0,1,845,62263,43,43,0.592682008,-1,1,1,0,-1,1330,52264,43,44,0.5309927,-1,3,0,1,-1,1094,42265,43,45,0.538425787,-1,2,0,1,-1,1229,32266,43,46,0.565497682,-1,1,1,0,-1,1085,22267,43,47,0.636438617,1,2,0,0,1,1631,32268,43,48,0.667356797,1,1,0,0,1,1292,42269,43,49,0.78491903,1,3,1,0,-1,1336,32270,43,50,0.732071092,1,1,1,1,1,927,42271,43,51,0.781662596,1,2,0,1,-1,1357,32272,43,52,0.803815424,-1,3,1,0,-1,818,22273,43,53,0.755405118,-1,2,1,1,1,781,32274,43,54,0.705870362,1,3,0,1,-1,1052,22275,43,55,0.742959094,1,1,1,0,-1,1720,12276,43,56,0.733060184,1,3,0,1,-1,1200,02277,43,57,0.829476901,1,2,1,0,-1,1010,-12278,43,58,0.754337968,1,1,1,1,1,871,02279,43,59,0.735434696,-1,2,1,1,1,747,12280,43,60,0.723787023,1,1,1,1,1,1956,22281,44,1,0.565566736,1,3,0,1,-1,1508,-62282,44,2,0.518296158,-1,1,1,1,1,988,-52283,44,3,0.613076447,1,2,0,0,1,1303,-42284,44,4,0.657360521,1,1,1,1,1,1632,-32285,44,5,0.592686499,1,3,0,0,1,1142,-22286,44,6,0.618923375,1,2,1,0,-1,1440,-32287,44,7,0.648531214,-1,3,0,0,1,959,-22288,44,8,0.59447526,-1,2,0,1,-1,1415,-32289,44,9,0.706685486,1,1,1,1,1,656,-22290,44,10,0.702468632,1,2,0,0,1,905,-12291,44,11,0.623577285,1,3,0,0,1,479,02292,44,12,0.703540037,1,1,1,1,1,1415,12293,44,13,0.62932593,1,3,1,0,-1,455,02294,44,14,0.639093548,-1,1,1,1,1,896,12295,44,15,0.676728894,-1,2,0,0,1,640,22296,44,16,0.77416245,1,1,1,1,1,787,32297,44,17,0.772033191,1,3,1,0,-1,440,22298,44,18,0.634378099,-1,2,1,0,-1,2416,12299,44,19,0.588871313,-1,3,0,0,1,1022,22300,44,20,0.649013238,1,2,1,0,-1,920,12301,44,21,0.593973705,-1,2,0,0,1,899,22302,44,22,0.588176988,1,3,0,0,1,771,32303,44,23,0.661097105,-1,1,0,1,-1,672,22304,44,24,0.570090173,-1,3,0,0,1,687,32305,44,25,0.452766992,1,2,0,0,1,560,42306,44,26,0.401938003,1,1,1,1,1,591,52307,44,27,0.327578959,-1,2,0,0,1,785,62308,44,28,0.27321015,1,1,1,1,1,870,72309,44,29,0.263628723,-1,3,0,0,1,448,82310,44,30,0.21635357,-1,1,1,1,1,647,92311,44,31,0.120616493,-1,2,0,0,1,577,102312,44,32,0.107297616,-1,3,0,0,1,623,112313,44,33,0.147277749,-1,2,1,0,-1,741,102314,44,34,0.136538163,-1,3,1,0,-1,664,92315,44,35,0.123250364,-1,1,0,1,-1,648,82316,44,36,0.194350014,-1,3,1,0,-1,671,72317,44,37,0.383296971,1,2,1,0,-1,1311,62318,44,38,0.328240676,-1,1,1,1,1,929,72319,44,39,0.407276729,-1,2,1,0,-1,744,62320,44,40,0.370507424,-1,1,1,1,1,951,72321,44,41,0.444198909,1,1,1,1,1,719,82322,44,42,0.397243957,-1,2,1,0,-1,927,72323,44,43,0.456512251,1,3,0,0,1,689,82324,44,44,0.403203496,-1,2,1,0,-1,863,72325,44,45,0.523813361,-1,1,0,1,-1,888,62326,44,46,0.534545611,-1,3,0,0,1,744,72327,44,47,0.492614583,-1,1,0,1,-1,880,62328,44,48,0.494101151,-1,3,0,0,1,784,72329,44,49,0.48553888,-1,2,1,0,-1,656,62330,44,50,0.383302123,-1,3,1,0,-1,679,52331,44,51,0.3041434,-1,1,1,1,1,696,62332,44,52,0.319028827,1,2,1,1,1,926,72333,44,53,0.308986133,-1,1,1,1,1,736,82334,44,54,0.34419278,-1,2,0,1,-1,880,72335,44,55,0.464787065,-1,3,0,0,1,928,82336,44,56,0.500781109,1,2,0,1,-1,1206,72337,44,57,0.413549839,-1,1,0,1,-1,805,62338,44,58,0.396166725,-1,3,0,0,1,767,72339,44,59,0.447699078,-1,1,1,1,1,884,82340,44,60,0.479959781,1,3,0,0,1,1713,92341,45,1,0.563627452,-1,2,0,1,-1,1344,112342,45,2,0.467990652,1,3,0,1,-1,1336,102343,45,3,0.485338183,1,1,1,1,1,1467,112344,45,4,0.539345718,-1,3,1,0,-1,977,102345,45,5,0.528717341,1,2,1,0,-1,1052,92346,45,6,0.419844064,1,1,1,0,-1,1129,82347,45,7,0.38389247,-1,2,1,1,1,983,92348,45,8,0.337120556,1,1,0,1,-1,1474,82349,45,9,0.473038472,1,3,0,0,1,358,92350,45,10,0.581486037,1,1,0,0,1,533,102351,45,11,0.549980426,-1,2,0,0,1,373,112352,45,12,0.466166362,-1,3,0,0,1,531,122353,45,13,0.464537493,1,2,1,0,-1,642,112354,45,14,0.457322967,-1,3,1,0,-1,676,102355,45,15,0.365020623,1,1,0,0,1,408,112356,45,16,0.353032124,-1,3,1,0,-1,309,102357,45,17,0.326743265,1,2,1,1,1,320,112358,45,18,0.502349422,1,1,1,1,1,540,122359,45,19,0.594485718,1,2,1,1,1,668,132360,45,20,0.65757651,1,1,1,0,-1,607,122361,45,21,0.739045303,1,3,0,0,1,641,132362,45,22,0.73779879,-1,1,1,1,1,996,142363,45,23,0.717117375,1,2,0,1,-1,687,132364,45,24,0.752398266,1,1,1,1,1,851,142365,45,25,0.635618457,1,3,0,0,1,570,152366,45,26,0.609684509,1,2,0,1,-1,668,142367,45,27,0.531520577,1,3,1,0,-1,863,132368,45,28,0.532260651,-1,2,0,1,-1,807,122369,45,29,0.561895621,1,1,1,1,1,790,132370,45,30,0.630343268,1,2,1,0,-1,908,122371,45,31,0.65883542,1,3,0,0,1,773,132372,45,32,0.602364926,-1,1,0,1,-1,1227,122373,45,33,0.580336087,-1,3,0,0,1,732,132374,45,34,0.554228224,-1,1,1,1,1,737,142375,45,35,0.496486138,-1,2,1,1,1,709,152376,45,36,0.507580402,1,1,1,1,1,714,162377,45,37,0.540269139,-1,3,0,0,1,638,172378,45,38,0.671443093,1,2,0,1,-1,689,162379,45,39,0.577117828,-1,3,0,0,1,917,172380,45,40,0.551017695,1,2,1,0,-1,863,162381,45,41,0.472856537,1,1,1,1,1,886,172382,45,42,0.433638666,-1,2,1,1,1,975,182383,45,43,0.456014738,-1,3,0,0,1,1370,192384,45,44,0.460392571,-1,2,0,1,-1,782,182385,45,45,0.447074004,1,1,1,1,1,564,192386,45,46,0.414693214,1,3,1,0,-1,533,182387,45,47,0.353979644,-1,1,0,1,-1,790,172388,45,48,0.315335122,-1,3,0,0,1,681,182389,45,49,0.215041426,-1,2,1,0,-1,749,172390,45,50,0.187711553,-1,3,0,0,1,802,182391,45,51,0.185039169,-1,1,1,1,1,777,192392,45,52,0.210191797,-1,2,0,1,-1,1039,182393,45,53,0.13872225,-1,1,1,1,1,811,192394,45,54,0.161363737,1,2,0,1,-1,722,182395,45,55,0.114650289,-1,3,0,0,1,606,192396,45,56,0.178650339,-1,2,0,0,1,776,202397,45,57,0.147788119,-1,1,1,1,1,654,212398,45,58,0.233944059,-1,3,0,0,1,626,222399,45,59,0.15782239,-1,1,1,1,1,740,232400,45,60,0.163851111,-1,3,0,0,1,1018,242401,47,1,0.529940667,-1,3,0,1,-1,2651,52402,47,2,0.377457557,1,1,1,1,1,1362,62403,47,3,0.441879777,-1,2,1,1,1,1113,72404,47,4,0.412802171,-1,1,1,1,1,1063,82405,47,5,0.333157899,-1,3,0,0,1,1119,92406,47,6,0.41817289,-1,2,0,1,-1,858,82407,47,7,0.483560318,1,3,0,0,1,782,92408,47,8,0.568457218,1,2,1,1,1,2511,102409,47,9,0.610228948,-1,1,1,1,1,981,112410,47,10,0.555979435,1,2,0,1,-1,943,102411,47,11,0.577827988,-1,3,0,0,1,859,112412,47,12,0.575257447,-1,1,1,1,1,995,122413,47,13,0.681720784,1,3,0,0,1,898,132414,47,14,0.731773703,-1,1,1,1,1,757,142415,47,15,0.747680466,1,2,1,1,1,522,152416,47,16,0.745029497,1,1,1,1,1,526,162417,47,17,0.64941852,1,3,1,0,-1,582,152418,47,18,0.741479257,1,2,0,1,-1,591,142419,47,19,0.65729966,1,3,0,0,1,637,152420,47,20,0.657743774,-1,2,1,1,1,559,162421,47,21,0.594442551,1,1,1,1,1,630,172422,47,22,0.569743946,-1,2,0,1,-1,489,162423,47,23,0.47069566,1,3,0,0,1,866,172424,47,24,0.55666087,1,2,1,1,1,562,182425,47,25,0.510291968,1,1,1,1,1,967,192426,47,26,0.439421473,-1,3,0,0,1,721,202427,47,27,0.396695989,-1,1,0,1,-1,822,192428,47,28,0.350517121,-1,3,1,0,-1,632,182429,47,29,0.262597816,-1,2,1,1,1,501,192430,47,30,0.229592307,-1,3,1,0,-1,838,182431,47,31,0.346439661,1,1,1,1,1,823,192432,47,32,0.307287585,-1,2,1,1,1,512,202433,47,33,0.416834978,-1,1,1,1,1,446,212434,47,34,0.429272528,-1,2,1,1,1,604,222435,47,35,0.549841559,1,3,0,1,-1,402,212436,47,36,0.589991035,-1,2,0,1,-1,596,202437,47,37,0.61436586,-1,1,0,1,-1,408,192438,47,38,0.663275431,1,3,0,1,-1,550,182439,47,39,0.681953866,1,1,0,1,-1,355,172440,47,40,0.657469607,-1,3,0,0,1,706,182441,47,41,0.730859777,1,2,0,1,-1,837,172442,47,42,0.694411004,-1,3,0,0,1,665,182443,47,43,0.668366816,-1,1,1,0,-1,362,172444,47,44,0.67223557,1,3,0,1,-1,242,162445,47,45,0.603172015,1,2,0,1,-1,732,152446,47,46,0.531462017,1,1,1,1,1,672,162447,47,47,0.595905556,1,2,0,1,-1,682,152448,47,48,0.541397424,1,1,1,1,1,857,162449,47,49,0.565523581,1,3,0,0,1,553,172450,47,50,0.544180248,-1,1,1,1,1,619,182451,47,51,0.39233321,-1,2,1,1,1,666,192452,47,52,0.403376825,1,3,1,0,-1,432,182453,47,53,0.375102099,1,2,0,1,-1,612,172454,47,54,0.250471961,-1,3,0,1,-1,1014,162455,47,55,0.184404025,-1,1,1,1,1,1072,172456,47,56,0.183535011,1,3,1,0,-1,433,162457,47,57,0.241689123,1,2,0,1,-1,1422,152458,47,58,0.30835493,-1,1,0,1,-1,1303,142459,47,59,0.318456967,1,2,1,0,-1,1122,132460,47,60,0.384569796,-1,1,0,1,-1,297,122461,48,1,0.579169585,NaN,2,NaN,NaN,NaN,NaN,62462,48,2,0.466936101,-1,3,0,1,-1,681,52463,48,3,0.462129483,1,1,1,1,1,766,62464,48,4,0.413836408,1,3,0,0,1,1045,72465,48,5,0.302360176,-1,2,1,0,-1,1987,62466,48,6,0.457405142,1,1,0,1,-1,1516,52467,48,7,0.43839339,1,2,1,1,1,1743,62468,48,8,0.444543628,-1,1,1,0,-1,1413,52469,48,9,0.356546129,-1,3,1,0,-1,3220,42470,48,10,0.287543361,1,1,1,0,-1,824,32471,48,11,0.27176554,-1,2,0,0,1,458,42472,48,12,0.189936361,1,3,0,1,-1,1015,32473,48,13,0.146385297,-1,2,0,0,1,1092,42474,48,14,0.261037405,-1,3,0,0,1,938,52475,48,15,0.324264041,-1,1,1,1,1,893,62476,48,16,0.397693575,1,3,1,0,-1,751,52477,48,17,0.381151987,-1,2,1,0,-1,791,42478,48,18,0.403015948,-1,1,1,1,1,609,52479,48,19,0.511473023,-1,2,1,1,1,708,62480,48,20,0.484178377,1,1,1,1,1,904,72481,48,21,0.497485937,1,1,1,1,1,681,82482,48,22,0.565526859,1,2,0,0,1,2463,92483,48,23,0.446441061,1,3,1,1,1,661,102484,48,24,0.521180767,1,2,0,1,-1,748,92485,48,25,0.450370314,1,1,1,1,1,728,102486,48,26,0.423410216,-1,3,0,1,-1,1546,92487,48,27,0.520153435,1,1,0,1,-1,685,82488,48,28,0.497758369,-1,3,0,1,-1,826,7